<?xml version="1.0" encoding="UTF-8"?>
<ODM xmlns:mdsol="http://www.mdsol.com/ns/odm/metadata" xmlns="http://www.cdisc.org/ns/odm/v1.3" 
xmlns:subject="http://www.cdisc.org/ns/odm/v1.3/subject" xmlns:query="http://www.cdisc.org/ns/odm/v1.3/query" 
xmlns:odm="http://www.cdisc.org/ns/odm/v1.3" FileType="Snapshot" Granularity="Metadata" 
CreationDateTime="2020-12-19T16:18:25.320-00:00" FileOID="9a42bbb3-5098-4223-887f-389d70596ff1" ODMVersion="1.3">
  <Study OID="Mediflex">
    <GlobalVariables>
      <StudyName>Mediflex</StudyName>
      <StudyDescription/>
      <ProtocolName>Mediflex</ProtocolName>
    </GlobalVariables>
    <BasicDefinitions>
      <MeasurementUnit OID="1015.ALT.150ml/U" Name="150ml/U">
        <Symbol>
          <TranslatedText xml:lang="en">150ml/U</TranslatedText>
          <TranslatedText xml:lang="ja">150ml/U</TranslatedText>
        </Symbol>
      </MeasurementUnit>
      <MeasurementUnit OID="1015.ALT.200ml/U" Name="200ml/U">
        <Symbol>
          <TranslatedText xml:lang="en">200ml/U</TranslatedText>
          <TranslatedText xml:lang="ja">200ml/U</TranslatedText>
        </Symbol>
      </MeasurementUnit>
      <MeasurementUnit OID="1015.ALT.ACCCC" Name="ACCCC">
        <Symbol>
          <TranslatedText xml:lang="en">ACCCC</TranslatedText>
          <TranslatedText xml:lang="ja">ACCCC</TranslatedText>
        </Symbol>
      </MeasurementUnit>
      <MeasurementUnit OID="1015.HeightUnits.Centimeters" Name="Centimeters">
        <Symbol>
          <TranslatedText xml:lang="en">Centimeters</TranslatedText>
          <TranslatedText xml:lang="ja">Centimeters</TranslatedText>
        </Symbol>
      </MeasurementUnit>
      <MeasurementUnit OID="1015.HeightUnits.Inches" Name="Inches">
        <Symbol>
          <TranslatedText xml:lang="en">Inches</TranslatedText>
          <TranslatedText xml:lang="ja">Inches</TranslatedText>
        </Symbol>
      </MeasurementUnit>
      <MeasurementUnit OID="1015.TemperatureUnits.Celsius" Name="Celsius">
        <Symbol>
          <TranslatedText xml:lang="en">Celsius</TranslatedText>
          <TranslatedText xml:lang="ja">Celsius</TranslatedText>
        </Symbol>
      </MeasurementUnit>
      <MeasurementUnit OID="1015.TemperatureUnits.Fahrenheit" Name="Fahrenheit">
        <Symbol>
          <TranslatedText xml:lang="en">Fahrenheit</TranslatedText>
          <TranslatedText xml:lang="ja">Fahrenheit</TranslatedText>
        </Symbol>
      </MeasurementUnit>
      <MeasurementUnit OID="1015.WeightUnits.KG" Name="KG">
        <Symbol>
          <TranslatedText xml:lang="en">KG</TranslatedText>
          <TranslatedText xml:lang="ja">KG</TranslatedText>
        </Symbol>
      </MeasurementUnit>
      <MeasurementUnit OID="1015.WeightUnits.LB" Name="LB">
        <Symbol>
          <TranslatedText xml:lang="en">LB</TranslatedText>
          <TranslatedText xml:lang="ja">LB</TranslatedText>
        </Symbol>
      </MeasurementUnit>
      <MeasurementUnit OID="mmHg" Name="mmHg">
        <Symbol>
          <TranslatedText xml:lang="en">mmHg</TranslatedText>
          <TranslatedText xml:lang="ja">mmHg</TranslatedText>
        </Symbol>
      </MeasurementUnit>
      <MeasurementUnit OID="BPM" Name="BPM">
        <Symbol>
          <TranslatedText xml:lang="en">BPM</TranslatedText>
          <TranslatedText xml:lang="ja">BPM</TranslatedText>
        </Symbol>
      </MeasurementUnit>
      <MeasurementUnit OID="per minute" Name="per minute">
        <Symbol>
          <TranslatedText xml:lang="en">per minute</TranslatedText>
          <TranslatedText xml:lang="ja">per minute</TranslatedText>
        </Symbol>
      </MeasurementUnit>
      <MeasurementUnit OID="%" Name="%">
        <Symbol>
          <TranslatedText xml:lang="en">%</TranslatedText>
          <TranslatedText xml:lang="ja">%</TranslatedText>
        </Symbol>
      </MeasurementUnit>
      <MeasurementUnit OID="years" Name="years">
        <Symbol>
          <TranslatedText xml:lang="en">years</TranslatedText>
          <TranslatedText xml:lang="ja">years</TranslatedText>
        </Symbol>
      </MeasurementUnit>
      <MeasurementUnit OID="msec" Name="msec">
        <Symbol>
          <TranslatedText xml:lang="en">msec</TranslatedText>
          <TranslatedText xml:lang="ja">msec</TranslatedText>
        </Symbol>
      </MeasurementUnit>
      <MeasurementUnit OID="cm" Name="cm">
        <Symbol>
          <TranslatedText xml:lang="en">cm</TranslatedText>
          <TranslatedText xml:lang="ja">cm</TranslatedText>
        </Symbol>
      </MeasurementUnit>
    </BasicDefinitions>
    <MetaDataVersion OID="1015" Name="19">
      <Protocol>
        <StudyEventRef StudyEventOID="SUBJECT" Mandatory="Yes"/>
        <StudyEventRef StudyEventOID="SCREEN" OrderNumber="1" Mandatory="No"/>
        <StudyEventRef StudyEventOID="LOGPAD_STUDYEVENTDEF_337" OrderNumber="2" Mandatory="No"/>
        <StudyEventRef StudyEventOID="VISIT01" OrderNumber="3" Mandatory="No"/>
        <StudyEventRef StudyEventOID="VISIT02" OrderNumber="4" Mandatory="No"/>
        <StudyEventRef StudyEventOID="VISIT03" OrderNumber="5" Mandatory="No"/>
        <StudyEventRef StudyEventOID="VISIT04" OrderNumber="6" Mandatory="No"/>
        <StudyEventRef StudyEventOID="CYCLE1" OrderNumber="7" Mandatory="No"/>
        <StudyEventRef StudyEventOID="CYCLE2" OrderNumber="8" Mandatory="No"/>
      </Protocol>
      <StudyEventDef OID="SUBJECT" Name="Subject" Type="Common" Repeating="No">
        <FormRef FormOID="AE" OrderNumber="5" Mandatory="No"/>
        <FormRef FormOID="CM" OrderNumber="23" Mandatory="No"/>
        <FormRef FormOID="IMAGE" OrderNumber="6" Mandatory="No"/>
      </StudyEventDef>
      <StudyEventDef OID="SCREEN" Name="Screening" Type="Common" Repeating="Yes">
        <FormRef FormOID="VISIT" OrderNumber="1" Mandatory="No"/>
        <FormRef FormOID="PE" OrderNumber="3" Mandatory="No"/>
        <FormRef FormOID="VS" OrderNumber="4" Mandatory="No"/>
        <FormRef FormOID="PRO_ASSESS" OrderNumber="15" Mandatory="No"/>
        <FormRef FormOID="INEX" OrderNumber="19" Mandatory="No"/>
        <FormRef FormOID="DM" OrderNumber="22" Mandatory="No"/>
        <FormRef FormOID="MH" OrderNumber="28" Mandatory="No"/>
      </StudyEventDef>
      <StudyEventDef OID="LOGPAD_STUDYEVENTDEF_337" Name="DIARY" Type="Common" Repeating="Yes">
        <FormRef FormOID="LOGPAD_SIGNINGUNITDEF_939" OrderNumber="21" Mandatory="No"/>
        <FormRef FormOID="LOGPAD_SIGNINGUNITDEF_903" OrderNumber="26" Mandatory="No"/>
        <FormRef FormOID="LOGPAD_SIGNINGUNITDEF_946" OrderNumber="27" Mandatory="No"/>
      </StudyEventDef>
      <StudyEventDef OID="VISIT01" Name="Visit 01" Type="Common" Repeating="Yes">
        <FormRef FormOID="VISIT" OrderNumber="1" Mandatory="No"/>
        <FormRef FormOID="VS" OrderNumber="4" Mandatory="No"/>
        <FormRef FormOID="BLOOD" OrderNumber="7" Mandatory="No"/>
        <FormRef FormOID="LAB_URINE" OrderNumber="8" Mandatory="No"/>
        <FormRef FormOID="PRO_ASSESS" OrderNumber="15" Mandatory="No"/>
        <FormRef FormOID="FORM_PAIN_SI" OrderNumber="20" Mandatory="No"/>
      </StudyEventDef>
      <StudyEventDef OID="VISIT02" Name="Visit 02" Type="Common" Repeating="Yes">
        <FormRef FormOID="VISIT" OrderNumber="1" Mandatory="No"/>
        <FormRef FormOID="PE" OrderNumber="3" Mandatory="No"/>
        <FormRef FormOID="VS" OrderNumber="4" Mandatory="No"/>
        <FormRef FormOID="BLOOD" OrderNumber="7" Mandatory="No"/>
        <FormRef FormOID="LAB_URINE" OrderNumber="8" Mandatory="No"/>
        <FormRef FormOID="PRO_ASSESS" OrderNumber="15" Mandatory="No"/>
        <FormRef FormOID="FORM_PAIN_SI" OrderNumber="20" Mandatory="No"/>
      </StudyEventDef>
      <StudyEventDef OID="VISIT03" Name="Visit 03" Type="Common" Repeating="Yes">
        <FormRef FormOID="VISIT" OrderNumber="1" Mandatory="No"/>
        <FormRef FormOID="VS" OrderNumber="4" Mandatory="No"/>
        <FormRef FormOID="BLOOD" OrderNumber="7" Mandatory="No"/>
        <FormRef FormOID="LAB_URINE" OrderNumber="8" Mandatory="No"/>
        <FormRef FormOID="PRO_ASSESS" OrderNumber="15" Mandatory="No"/>
        <FormRef FormOID="FORM_PAIN_SI" OrderNumber="20" Mandatory="No"/>
      </StudyEventDef>
      <StudyEventDef OID="VISIT04" Name="Visit 04" Type="Common" Repeating="Yes">
        <FormRef FormOID="VISIT" OrderNumber="1" Mandatory="No"/>
        <FormRef FormOID="PE" OrderNumber="3" Mandatory="No"/>
        <FormRef FormOID="VS" OrderNumber="4" Mandatory="No"/>
        <FormRef FormOID="FORM_PAIN_SI" OrderNumber="20" Mandatory="No"/>
      </StudyEventDef>
      <StudyEventDef OID="CYCLE1" Name="Cycle 01" Type="Common" Repeating="Yes">
        <FormRef FormOID="VISIT" OrderNumber="1" Mandatory="No"/>
        <FormRef FormOID="EX" OrderNumber="2" Mandatory="No"/>
        <FormRef FormOID="PE" OrderNumber="3" Mandatory="No"/>
        <FormRef FormOID="VS" OrderNumber="4" Mandatory="No"/>
        <FormRef FormOID="BLOOD" OrderNumber="7" Mandatory="No"/>
        <FormRef FormOID="MH" OrderNumber="28" Mandatory="No"/>
        <FormRef FormOID="TUMOR" OrderNumber="29" Mandatory="No"/>
      </StudyEventDef>
      <StudyEventDef OID="CYCLE2" Name="Cycle 02" Type="Common" Repeating="Yes">
        <FormRef FormOID="VISIT" OrderNumber="1" Mandatory="No"/>
        <FormRef FormOID="EX" OrderNumber="2" Mandatory="No"/>
        <FormRef FormOID="PE" OrderNumber="3" Mandatory="No"/>
        <FormRef FormOID="BLOOD" OrderNumber="7" Mandatory="No"/>
        <FormRef FormOID="ADDCYCLE" OrderNumber="18" Mandatory="No"/>
        <FormRef FormOID="MH" OrderNumber="28" Mandatory="No"/>
        <FormRef FormOID="TUMOR" OrderNumber="29" Mandatory="No"/>
      </StudyEventDef>
      <FormDef OID="VISIT" Name="Visit Date" Repeating="Yes">
        <ItemGroupRef ItemGroupOID="VISIT" Mandatory="Yes"/>
      </FormDef>
      <FormDef OID="EX" Name="Treatment" Repeating="Yes">
        <ItemGroupRef ItemGroupOID="EX" Mandatory="Yes"/>
      </FormDef>
      <FormDef OID="PE" Name="Physical Examination" Repeating="Yes">
        <ItemGroupRef ItemGroupOID="PE" Mandatory="Yes"/>
        <ItemGroupRef ItemGroupOID="PE_LOG_LINE" Mandatory="No"/>
      </FormDef>
      <FormDef OID="VS" Name="Vital Signs" Repeating="Yes">
        <ItemGroupRef ItemGroupOID="VS" Mandatory="Yes"/>
      </FormDef>
      <FormDef OID="AE" Name="Adverse Events" Repeating="Yes">
        <ItemGroupRef ItemGroupOID="AE" Mandatory="Yes"/>
        <ItemGroupRef ItemGroupOID="AE_LOG_LINE" Mandatory="No"/>
      </FormDef>
      <FormDef OID="IMAGE" Name="Image Library" Repeating="Yes">
        <ItemGroupRef ItemGroupOID="IMAGE_LOG_LINE" Mandatory="No"/>
        
        
      </FormDef>
      <FormDef OID="BLOOD" Name="LAB - Complete Blood Count" Repeating="Yes">
        <ItemGroupRef ItemGroupOID="BLOOD" Mandatory="Yes"/>
      </FormDef>
      <FormDef OID="LAB_URINE" Name="LAB - Urinalysis" Repeating="Yes">
        <ItemGroupRef ItemGroupOID="LAB_URINE" Mandatory="Yes"/>
      </FormDef>
      <FormDef OID="SU_SMOKE" Name="Smoking History" Repeating="Yes">
        <ItemGroupRef ItemGroupOID="SU_SMOKE" Mandatory="Yes"/>
        <ItemGroupRef ItemGroupOID="SU_SMOKE_LOG_LINE" Mandatory="No"/>
      </FormDef>
      <FormDef OID="SU_ALCOHOL" Name="Alcohol Consumption" Repeating="Yes">
        <ItemGroupRef ItemGroupOID="SU_ALCOHOL" Mandatory="Yes"/>
      </FormDef>
      <FormDef OID="EN" Name="Enrollment" Repeating="Yes">
        <ItemGroupRef ItemGroupOID="EN" Mandatory="Yes"/>
      </FormDef>
      <FormDef OID="DS_EOS" Name="End of Study" Repeating="Yes">
        <ItemGroupRef ItemGroupOID="DS_EOS" Mandatory="Yes"/>
      </FormDef>
      <FormDef OID="RAND" Name="Randomization" Repeating="Yes">
        <ItemGroupRef ItemGroupOID="RAND" Mandatory="Yes"/>
      </FormDef>
      <FormDef OID="DS_DEATH" Name="Death" Repeating="Yes">
        <ItemGroupRef ItemGroupOID="DS_DEATH" Mandatory="Yes"/>
      </FormDef>
      <FormDef OID="PRO_ASSESS" Name="PRO Condition Assessment" Repeating="Yes">
        <ItemGroupRef ItemGroupOID="PRO_ASSESS" Mandatory="Yes"/>
      </FormDef>
      <FormDef OID="PRO_COMPARE" Name="PRO Condition Comparison" Repeating="Yes">
        <ItemGroupRef ItemGroupOID="PRO_COMPARE" Mandatory="Yes"/>
      </FormDef>
      <FormDef OID="REQUIRED" Name="Required Forms" Repeating="Yes">
        <ItemGroupRef ItemGroupOID="REQUIRED" Mandatory="Yes"/>
      </FormDef>
      <FormDef OID="ADDCYCLE" Name="Additional Cycle" Repeating="Yes">
        <ItemGroupRef ItemGroupOID="ADDCYCLE" Mandatory="Yes"/>
      </FormDef>
      <FormDef OID="INEX" Name="Include / Exclude Criteria" Repeating="Yes">
        <ItemGroupRef ItemGroupOID="INEX" Mandatory="Yes"/>
      </FormDef>
      <FormDef OID="FORM_PAIN_SI" Name="Pain Diary" Repeating="Yes">
        <ItemGroupRef ItemGroupOID="FORM_PAIN_SI_LOG_LINE" Mandatory="No"/>
      </FormDef>
      <FormDef OID="LOGPAD_SIGNINGUNITDEF_939" Name="Pain" Repeating="Yes">
        <ItemGroupRef ItemGroupOID="LOGPAD_SIGNINGUNITDEF_939_LOG_LINE" Mandatory="No"/>
        
        
      </FormDef>
      <FormDef OID="DM" Name="Demographics" Repeating="Yes">
        <ItemGroupRef ItemGroupOID="DM" Mandatory="Yes"/>
      </FormDef>
      <FormDef OID="CM" Name="Concomitant Medications" Repeating="Yes">
        <ItemGroupRef ItemGroupOID="CM" Mandatory="Yes"/>
        <ItemGroupRef ItemGroupOID="CM_LOG_LINE" Mandatory="No"/>
      </FormDef>
      <FormDef OID="PRG" Name="Pregnancy" Repeating="Yes">
        <ItemGroupRef ItemGroupOID="PRG" Mandatory="Yes"/>
      </FormDef>
      <FormDef OID="EG" Name="ECG Test" Repeating="Yes">
        <ItemGroupRef ItemGroupOID="EG" Mandatory="Yes"/>
      </FormDef>
      <FormDef OID="LOGPAD_SIGNINGUNITDEF_903" Name="Urinary Event" Repeating="Yes">
        <ItemGroupRef ItemGroupOID="LOGPAD_SIGNINGUNITDEF_903_LOG_LINE" Mandatory="No"/>
      </FormDef>
      <FormDef OID="LOGPAD_SIGNINGUNITDEF_946" Name="SF-36" Repeating="Yes">
        <ItemGroupRef ItemGroupOID="LOGPAD_SIGNINGUNITDEF_946_LOG_LINE" Mandatory="No"/>
      </FormDef>
      <FormDef OID="MH" Name="Medical History" Repeating="Yes">
        <ItemGroupRef ItemGroupOID="MH" Mandatory="Yes"/>
        <ItemGroupRef ItemGroupOID="MH_LOG_LINE" Mandatory="No"/>
      </FormDef>
      <FormDef OID="TUMOR" Name="Tumor Assessment" Repeating="Yes">
        <ItemGroupRef ItemGroupOID="TUMOR" Mandatory="Yes"/>
      </FormDef>
      <ItemGroupDef OID="VISIT" Name="VISIT" Repeating="No">
        <ItemRef ItemOID="VISIT.DTC" OrderNumber="1" Mandatory="Yes"/>
      </ItemGroupDef>
      <ItemGroupDef OID="EX" Name="EX" Repeating="No">
        <ItemRef ItemOID="EX.EXTRT" OrderNumber="2" Mandatory="Yes"/>
        <ItemRef ItemOID="EX.EXDOSE" OrderNumber="3" Mandatory="Yes"/>
        <ItemRef ItemOID="EX.EXDOSTXT" OrderNumber="4" Mandatory="No"/>
        <ItemRef ItemOID="EX.EXDOSTOT" OrderNumber="5" Mandatory="No"/>
        <ItemRef ItemOID="EX.EXDOSU" OrderNumber="6" Mandatory="Yes"/>
        <ItemRef ItemOID="EX.EXSTDTC" OrderNumber="7" Mandatory="Yes"/>
        <ItemRef ItemOID="EX.EXSTDTM" OrderNumber="8" Mandatory="No"/>
        <ItemRef ItemOID="EX.EXENDTC" OrderNumber="9" Mandatory="Yes"/>
        <ItemRef ItemOID="EX.EXENDTM" OrderNumber="10" Mandatory="No"/>
        <ItemRef ItemOID="EX.EXDUR" OrderNumber="11" Mandatory="Yes"/>
        <ItemRef ItemOID="EX.EXDOSFRM" OrderNumber="12" Mandatory="Yes"/>
        <ItemRef ItemOID="EX.EXDOSFRQ" OrderNumber="13" Mandatory="Yes"/>
        <ItemRef ItemOID="EX.EXROUTE" OrderNumber="14" Mandatory="Yes"/>
        <ItemRef ItemOID="EX.EXDOSRGM" OrderNumber="15" Mandatory="Yes"/>
        <ItemRef ItemOID="EX.EXLOC" OrderNumber="16" Mandatory="Yes"/>
        <ItemRef ItemOID="EX.EXTRTV" OrderNumber="17" Mandatory="Yes"/>
        <ItemRef ItemOID="EX.EXLOT" OrderNumber="18" Mandatory="Yes"/>
      </ItemGroupDef>
      <ItemGroupDef OID="PE" Name="PE" Repeating="No">
        <ItemRef ItemOID="PE.PESTAT" OrderNumber="19" Mandatory="Yes"/>
        <ItemRef ItemOID="PE.PEDT" OrderNumber="20" Mandatory="No"/>
        <ItemRef ItemOID="PE.PEREASND" OrderNumber="21" Mandatory="No"/>
        <ItemRef ItemOID="PE.PEYN" OrderNumber="22" Mandatory="No"/>
      </ItemGroupDef>
      <ItemGroupDef OID="PE_LOG_LINE" Name="PE_LOG_LINE" Repeating="Yes">
        <ItemRef ItemOID="PE.PETEST" OrderNumber="23" Mandatory="No"/>
        <ItemRef ItemOID="PE.PELOC" OrderNumber="24" Mandatory="No"/>
        <ItemRef ItemOID="PE.PEORRES" OrderNumber="25" Mandatory="No"/>
        <ItemRef ItemOID="PE.PESEV" OrderNumber="26" Mandatory="No"/>
      </ItemGroupDef>
      <ItemGroupDef OID="VS" Name="VS" Repeating="No">
        <ItemRef ItemOID="VS.VSSTAT" OrderNumber="26" Mandatory="Yes"/>
        <ItemRef ItemOID="VS.VSREASND" OrderNumber="27" Mandatory="No"/>
        <ItemRef ItemOID="VS.VSDTC" OrderNumber="28" Mandatory="No"/>
        <ItemRef ItemOID="VS.VSORRESHT" OrderNumber="29" Mandatory="No"/>
        <ItemRef ItemOID="VS.WEIGHT" OrderNumber="30" Mandatory="No"/>
        <ItemRef ItemOID="VS.BMI" OrderNumber="31" Mandatory="No"/>
        <ItemRef ItemOID="VS.SYSBP" OrderNumber="34" Mandatory="No"/>
        <ItemRef ItemOID="VS.DIABP" OrderNumber="35" Mandatory="No"/>
        <ItemRef ItemOID="VS.BPLOC" OrderNumber="36" Mandatory="No"/>
        <ItemRef ItemOID="VS.BPPOS" OrderNumber="37" Mandatory="No"/>
        <ItemRef ItemOID="VS.HEART" OrderNumber="38" Mandatory="No"/>
        <ItemRef ItemOID="VS.HEARTLOC" OrderNumber="39" Mandatory="No"/>
        <ItemRef ItemOID="VS.HEARTPOS" OrderNumber="40" Mandatory="No"/>
        <ItemRef ItemOID="VS.PULSE" OrderNumber="41" Mandatory="No"/>
        <ItemRef ItemOID="VS.PULSELOC" OrderNumber="42" Mandatory="No"/>
        <ItemRef ItemOID="VS.PULSEPOS" OrderNumber="43" Mandatory="No"/>
        <ItemRef ItemOID="VS.TEMP" OrderNumber="44" Mandatory="No"/>
        <ItemRef ItemOID="VS.TEMPLOC" OrderNumber="45" Mandatory="No"/>
        <ItemRef ItemOID="VS.TEMPPOS" OrderNumber="46" Mandatory="No"/>
        <ItemRef ItemOID="VS.RESP" OrderNumber="47" Mandatory="No"/>
        <ItemRef ItemOID="VS.RESPPOS" OrderNumber="48" Mandatory="No"/>
        <ItemRef ItemOID="VS.BSA" OrderNumber="49" Mandatory="No"/>
      </ItemGroupDef>
      <ItemGroupDef OID="AE" Name="AE" Repeating="No">
        <ItemRef ItemOID="AE.AEYN" OrderNumber="49" Mandatory="Yes"/>
        <ItemRef ItemOID="AE.LLT" OrderNumber="74" Mandatory="No"/>
      </ItemGroupDef>
      <ItemGroupDef OID="AE_LOG_LINE" Name="AE_LOG_LINE" Repeating="Yes">
        <ItemRef ItemOID="AE.AETERM" OrderNumber="50" Mandatory="Yes"/>
        <ItemRef ItemOID="AE.AESTDTC" OrderNumber="51" Mandatory="Yes"/>
        <ItemRef ItemOID="AE.AEONG" OrderNumber="52" Mandatory="No"/>
        <ItemRef ItemOID="AE.AEENDTC" OrderNumber="53" Mandatory="Yes"/>
        <ItemRef ItemOID="AE.AELOC" OrderNumber="54" Mandatory="Yes"/>
        <ItemRef ItemOID="AE.AESEV" OrderNumber="55" Mandatory="Yes"/>
        <ItemRef ItemOID="AE.AEACN" OrderNumber="56" Mandatory="Yes"/>
        <ItemRef ItemOID="AE.AEACNOTH" OrderNumber="57" Mandatory="No"/>
        <ItemRef ItemOID="AE.AEREL" OrderNumber="58" Mandatory="Yes"/>
        <ItemRef ItemOID="AE.AERELNST" OrderNumber="59" Mandatory="Yes"/>
        <ItemRef ItemOID="AE.AEPATT" OrderNumber="60" Mandatory="No"/>
        <ItemRef ItemOID="AE.AEOUT" OrderNumber="61" Mandatory="No"/>
        <ItemRef ItemOID="AE.AECONTRT" OrderNumber="62" Mandatory="Yes"/>
        <ItemRef ItemOID="AE.AECONTRTSP" OrderNumber="63" Mandatory="No"/>
        <ItemRef ItemOID="AE.AESER" OrderNumber="64" Mandatory="Yes"/>
        <ItemRef ItemOID="AE.AESCAN" OrderNumber="65" Mandatory="No"/>
        <ItemRef ItemOID="AE.AECONG" OrderNumber="66" Mandatory="No"/>
        <ItemRef ItemOID="AE.AESDISAB" OrderNumber="67" Mandatory="No"/>
        <ItemRef ItemOID="AE.AESDTH" OrderNumber="68" Mandatory="No"/>
        <ItemRef ItemOID="AE.AESHOSP" OrderNumber="69" Mandatory="No"/>
        <ItemRef ItemOID="AE.AESLIFE" OrderNumber="70" Mandatory="No"/>
        <ItemRef ItemOID="AE.AESOD" OrderNumber="71" Mandatory="No"/>
        <ItemRef ItemOID="AE.AESMIE" OrderNumber="72" Mandatory="No"/>
        <ItemRef ItemOID="AE.AESMIESP" OrderNumber="73" Mandatory="No"/>
      </ItemGroupDef>
      <ItemGroupDef OID="IMAGE_LOG_LINE" Name="IMAGE_LOG_LINE" Repeating="Yes">
        <ItemRef ItemOID="IMAGE.DATE_IMG" OrderNumber="74" Mandatory="No"/>
        <ItemRef ItemOID="IMAGE.DESCRIPTION" OrderNumber="75" Mandatory="No"/>
        <ItemRef ItemOID="IMAGE.IMAGE" OrderNumber="76" Mandatory="No"/>
      </ItemGroupDef>
      <ItemGroupDef OID="BLOOD" Name="BLOOD" Repeating="No">
        <ItemRef ItemOID="BLOOD.WBC" OrderNumber="77" Mandatory="No"/>
        <ItemRef ItemOID="BLOOD.RBC" OrderNumber="78" Mandatory="No"/>
        <ItemRef ItemOID="BLOOD.HEMOGLOBIN" OrderNumber="79" Mandatory="No"/>
        <ItemRef ItemOID="BLOOD.HEMATOCRIT" OrderNumber="80" Mandatory="No"/>
      </ItemGroupDef>
      <ItemGroupDef OID="LAB_URINE" Name="LAB_URINE" Repeating="No">
        <ItemRef ItemOID="LAB_URINE.LBDT" OrderNumber="1" Mandatory="No"/>
        <ItemRef ItemOID="LAB_URINE.SPEC_GRAVITY" OrderNumber="82" Mandatory="No"/>
        <ItemRef ItemOID="LAB_URINE.URINE_PH" OrderNumber="83" Mandatory="No"/>
        <ItemRef ItemOID="LAB_URINE.URINE_PROTEIN" OrderNumber="84" Mandatory="No"/>
        <ItemRef ItemOID="LAB_URINE.URINE_GLUCOSE" OrderNumber="85" Mandatory="No"/>
      </ItemGroupDef>
      <ItemGroupDef OID="SU_SMOKE" Name="SU_SMOKE" Repeating="No">
        <ItemRef ItemOID="SU_SMOKE.SUSTAT" OrderNumber="85" Mandatory="Yes"/>
        <ItemRef ItemOID="SU_SMOKE.SUREASND" OrderNumber="86" Mandatory="No"/>
        <ItemRef ItemOID="SU_SMOKE.SU_SMID" OrderNumber="87" Mandatory="No"/>
      </ItemGroupDef>
      <ItemGroupDef OID="SU_SMOKE_LOG_LINE" Name="SU_SMOKE_LOG_LINE" Repeating="Yes">
        <ItemRef ItemOID="SU_SMOKE.SUSCAT" OrderNumber="90" Mandatory="No"/>
        <ItemRef ItemOID="SU_SMOKE.SUDOSTXT" OrderNumber="91" Mandatory="No"/>
        <ItemRef ItemOID="SU_SMOKE.SUDOSFRQ" OrderNumber="92" Mandatory="No"/>
        <ItemRef ItemOID="SU_SMOKE.SUSTDTC" OrderNumber="93" Mandatory="No"/>
        <ItemRef ItemOID="SU_SMOKE.SUONGYN" OrderNumber="94" Mandatory="No"/>
        <ItemRef ItemOID="SU_SMOKE.SUENDTC" OrderNumber="95" Mandatory="No"/>
      </ItemGroupDef>
      <ItemGroupDef OID="SU_ALCOHOL" Name="SU_ALCOHOL" Repeating="No">
        <ItemRef ItemOID="SU_ALCOHOL.SUSTAT" OrderNumber="96" Mandatory="Yes"/>
        <ItemRef ItemOID="SU_ALCOHOL.SUREASND" OrderNumber="97" Mandatory="No"/>
        <ItemRef ItemOID="SU_ALCOHOL.SUDOSTXT" OrderNumber="98" Mandatory="No"/>
        <ItemRef ItemOID="SU_ALCOHOL.SUDOSFRQ" OrderNumber="99" Mandatory="No"/>
      </ItemGroupDef>
      <ItemGroupDef OID="EN" Name="EN" Repeating="No">
        <ItemRef ItemOID="EN.SUBJINIT" OrderNumber="100" Mandatory="Yes"/>
        <ItemRef ItemOID="EN.SUBJID" OrderNumber="101" Mandatory="No"/>
        <ItemRef ItemOID="EN.USUBJID" OrderNumber="102" Mandatory="No"/>
      </ItemGroupDef>
      <ItemGroupDef OID="DS_EOS" Name="DS_EOS" Repeating="No">
        <ItemRef ItemOID="DS_EOS.DSSTAT" OrderNumber="103" Mandatory="Yes"/>
        <ItemRef ItemOID="DS_EOS.DSREAS" OrderNumber="104" Mandatory="No"/>
        <ItemRef ItemOID="DS_EOS.DSSTDT" OrderNumber="105" Mandatory="No"/>
        <ItemRef ItemOID="DS_EOS.DSSTDTC" OrderNumber="106" Mandatory="No"/>
        <ItemRef ItemOID="DS_EOS.DSRAND" OrderNumber="107" Mandatory="No"/>
        <ItemRef ItemOID="DS_EOS.DSRANDDT" OrderNumber="108" Mandatory="No"/>
      </ItemGroupDef>
      <ItemGroupDef OID="RAND" Name="RAND" Repeating="No">
        <ItemRef ItemOID="RAND.DSSTDT" OrderNumber="109" Mandatory="Yes"/>
        <ItemRef ItemOID="RAND.ARMCD" OrderNumber="110" Mandatory="No"/>
      </ItemGroupDef>
      <ItemGroupDef OID="DS_DEATH" Name="DS_DEATH" Repeating="No">
        <ItemRef ItemOID="DS_DEATH.DSSTDT_DEATH" OrderNumber="111" Mandatory="Yes"/>
        <ItemRef ItemOID="DS_DEATH.DSSTDTC_TIME" OrderNumber="112" Mandatory="No"/>
        <ItemRef ItemOID="DS_DEATH.DSREASDTH" OrderNumber="113" Mandatory="No"/>
      </ItemGroupDef>
      <ItemGroupDef OID="PRO_ASSESS" Name="PRO_ASSESS" Repeating="No">
        <ItemRef ItemOID="PRO_ASSESS.CON_DATE" OrderNumber="114" Mandatory="Yes"/>
        <ItemRef ItemOID="PRO_ASSESS.CON_COND" OrderNumber="115" Mandatory="Yes"/>
        <ItemRef ItemOID="PRO_ASSESS.CON_BLOAT" OrderNumber="116" Mandatory="Yes"/>
        <ItemRef ItemOID="PRO_ASSESS.CON_DISCOMFORT" OrderNumber="117" Mandatory="Yes"/>
        <ItemRef ItemOID="PRO_ASSESS.CON_EFFECT" OrderNumber="118" Mandatory="Yes"/>
      </ItemGroupDef>
      <ItemGroupDef OID="PRO_COMPARE" Name="PRO_COMPARE" Repeating="No">
        <ItemRef ItemOID="PRO_COMPARE.COMP_CON" OrderNumber="119" Mandatory="Yes"/>
        <ItemRef ItemOID="PRO_COMPARE.COMP_BLOAT" OrderNumber="120" Mandatory="Yes"/>
        <ItemRef ItemOID="PRO_COMPARE.COMP_DISCOMFORT" OrderNumber="121" Mandatory="Yes"/>
        <ItemRef ItemOID="PRO_COMPARE.COMP_COMMENTS" OrderNumber="122" Mandatory="No"/>
      </ItemGroupDef>
      <ItemGroupDef OID="REQUIRED" Name="REQUIRED" Repeating="No">
        <ItemRef ItemOID="REQUIRED.REQ_VITALS" OrderNumber="125" Mandatory="No"/>
        <ItemRef ItemOID="REQUIRED.REQ_PHYSEXAM" OrderNumber="126" Mandatory="No"/>
        <ItemRef ItemOID="REQUIRED.REQ_PREG" OrderNumber="127" Mandatory="No"/>
      </ItemGroupDef>
      <ItemGroupDef OID="ADDCYCLE" Name="ADDCYCLE" Repeating="No">
        <ItemRef ItemOID="ADDCYCLE.ADD_CYCLE" OrderNumber="128" Mandatory="No"/>
      </ItemGroupDef>
      <ItemGroupDef OID="INEX" Name="INEX" Repeating="No">
        <ItemRef ItemOID="INEX.INFCONSENTDT" OrderNumber="129" Mandatory="No"/>
        <ItemRef ItemOID="INEX.IN01" OrderNumber="132" Mandatory="No"/>
        <ItemRef ItemOID="INEX.APPRV_IN01" OrderNumber="133" Mandatory="No"/>
        <ItemRef ItemOID="INEX.APPDATE_IN01" OrderNumber="134" Mandatory="No"/>
        <ItemRef ItemOID="INEX.IN02" OrderNumber="135" Mandatory="No"/>
        <ItemRef ItemOID="INEX.APPRV_IN02" OrderNumber="136" Mandatory="No"/>
        <ItemRef ItemOID="INEX.APPDATE_IN02" OrderNumber="137" Mandatory="No"/>
        <ItemRef ItemOID="INEX.IN03" OrderNumber="138" Mandatory="No"/>
        <ItemRef ItemOID="INEX.APPRV_IN03" OrderNumber="139" Mandatory="No"/>
        <ItemRef ItemOID="INEX.APPDATE_IN03" OrderNumber="140" Mandatory="No"/>
        <ItemRef ItemOID="INEX.EX01" OrderNumber="143" Mandatory="No"/>
        <ItemRef ItemOID="INEX.APPRV_EX01" OrderNumber="144" Mandatory="No"/>
        <ItemRef ItemOID="INEX.APPDATE_EX01" OrderNumber="145" Mandatory="No"/>
        <ItemRef ItemOID="INEX.EX02" OrderNumber="146" Mandatory="No"/>
        <ItemRef ItemOID="INEX.APPRV_EX02" OrderNumber="147" Mandatory="No"/>
        <ItemRef ItemOID="INEX.APPDATE_EX02" OrderNumber="148" Mandatory="No"/>
        <ItemRef ItemOID="INEX.EX03" OrderNumber="149" Mandatory="No"/>
        <ItemRef ItemOID="INEX.APPRV_EX03" OrderNumber="150" Mandatory="No"/>
        <ItemRef ItemOID="INEX.APPDATE_EX03" OrderNumber="151" Mandatory="No"/>
      </ItemGroupDef>
      <ItemGroupDef OID="FORM_PAIN_SI_LOG_LINE" Name="FORM_PAIN_SI_LOG_LINE" Repeating="Yes">
        <ItemRef ItemOID="FORM_PAIN_SI.IT_DATE" OrderNumber="152" Mandatory="No"/>
        <ItemRef ItemOID="FORM_PAIN_SI.IT_TIME" OrderNumber="153" Mandatory="No"/>
        <ItemRef ItemOID="FORM_PAIN_SI.IT_SEVERE" OrderNumber="154" Mandatory="No"/>
        <ItemRef ItemOID="FORM_PAIN_SI.IT_EXPECTED" OrderNumber="155" Mandatory="No"/>
        <ItemRef ItemOID="FORM_PAIN_SI.IT_ACT_WORK" OrderNumber="156" Mandatory="No"/>
        <ItemRef ItemOID="FORM_PAIN_SI.IT_ACT_EXER" OrderNumber="157" Mandatory="No"/>
        <ItemRef ItemOID="FORM_PAIN_SI.IT_ACT_WALK" OrderNumber="158" Mandatory="No"/>
        <ItemRef ItemOID="FORM_PAIN_SI.IT_ACT_SIT" OrderNumber="159" Mandatory="No"/>
        <ItemRef ItemOID="FORM_PAIN_SI.IT_ACT_CLIMB" OrderNumber="160" Mandatory="No"/>
        <ItemRef ItemOID="FORM_PAIN_SI.IT_ACT_NONE" OrderNumber="161" Mandatory="No"/>
        <ItemRef ItemOID="FORM_PAIN_SI.IT_MOOD" OrderNumber="162" Mandatory="No"/>
        <ItemRef ItemOID="FORM_PAIN_SI.IT_ENJOY" OrderNumber="163" Mandatory="No"/>
        <ItemRef ItemOID="FORM_PAIN_SI.IT_BODY" OrderNumber="164" Mandatory="No"/>
        <ItemRef ItemOID="FORM_PAIN_SI.IT_MEDS" OrderNumber="165" Mandatory="No"/>
        <ItemRef ItemOID="FORM_PAIN_SI.IT_START" OrderNumber="166" Mandatory="No"/>
        <ItemRef ItemOID="FORM_PAIN_SI.IT_REC_ID" OrderNumber="167" Mandatory="No"/>
        <ItemRef ItemOID="FORM_PAIN_SI.IT_REVISION" OrderNumber="168" Mandatory="No"/>
        <ItemRef ItemOID="FORM_PAIN_SI.IT_STATEID" OrderNumber="169" Mandatory="No"/>
      </ItemGroupDef>
      <ItemGroupDef OID="LOGPAD_SIGNINGUNITDEF_939_LOG_LINE" Name="LOGPAD_SIGNINGUNITDEF_939_LOG_LINE" Repeating="Yes">
        <ItemRef ItemOID="LOGPAD_SIGNINGUNITDEF_939.LOGPAD_ITEMDEF_216" OrderNumber="170" Mandatory="No"/>
        <ItemRef ItemOID="LOGPAD_SIGNINGUNITDEF_939.LOGPAD_ITEMDEF_675" OrderNumber="171" Mandatory="No"/>
        <ItemRef ItemOID="LOGPAD_SIGNINGUNITDEF_939.LOGPAD_ITEMDEF_677" OrderNumber="172" Mandatory="No"/>
        <ItemRef ItemOID="LOGPAD_SIGNINGUNITDEF_939.LOGPAD_ITEMDEF_1021" OrderNumber="173" Mandatory="No"/>
        <ItemRef ItemOID="LOGPAD_SIGNINGUNITDEF_939.LOGPAD_ITEMDEF_1029" OrderNumber="174" Mandatory="No"/>
        <ItemRef ItemOID="LOGPAD_SIGNINGUNITDEF_939.LOGPAD_ITEMDEF_1031" OrderNumber="175" Mandatory="No"/>
        <ItemRef ItemOID="LOGPAD_SIGNINGUNITDEF_939.LOGPAD_ITEMDEF_1054" OrderNumber="176" Mandatory="No"/>
        <ItemRef ItemOID="LOGPAD_SIGNINGUNITDEF_939.LOGPAD_ITEMDEF_1056" OrderNumber="177" Mandatory="No"/>
        <ItemRef ItemOID="LOGPAD_SIGNINGUNITDEF_939.LOGPAD_ITEMDEF_214" OrderNumber="178" Mandatory="No"/>
        <ItemRef ItemOID="LOGPAD_SIGNINGUNITDEF_939.LOGPAD_ITEMDEF_317" OrderNumber="179" Mandatory="No"/>
        <ItemRef ItemOID="LOGPAD_SIGNINGUNITDEF_939.LOGPAD_ITEMDEF_230" OrderNumber="180" Mandatory="No"/>
        <ItemRef ItemOID="LOGPAD_SIGNINGUNITDEF_939.LOGPAD_ITEMDEF_234" OrderNumber="181" Mandatory="No"/>
        <ItemRef ItemOID="LOGPAD_SIGNINGUNITDEF_939.LOGPAD_ITEMDEF_232" OrderNumber="182" Mandatory="No"/>
        <ItemRef ItemOID="LOGPAD_SIGNINGUNITDEF_939.LOGPAD_ITEMDEF_212" OrderNumber="183" Mandatory="No"/>
        <ItemRef ItemOID="LOGPAD_SIGNINGUNITDEF_939.LOGPAD_ITEMDEF_224" OrderNumber="184" Mandatory="No"/>
        <ItemRef ItemOID="LOGPAD_SIGNINGUNITDEF_939.LOGPAD_ITEMDEF_220" OrderNumber="185" Mandatory="No"/>
        <ItemRef ItemOID="LOGPAD_SIGNINGUNITDEF_939.LOGPAD_ITEMDEF_222" OrderNumber="186" Mandatory="No"/>
        <ItemRef ItemOID="LOGPAD_SIGNINGUNITDEF_939.LOGPAD_ITEMDEF_530" OrderNumber="187" Mandatory="No"/>
        <ItemRef ItemOID="LOGPAD_SIGNINGUNITDEF_939.LOGPAD_ITEMDEF_300" OrderNumber="188" Mandatory="No"/>
      </ItemGroupDef>
      <ItemGroupDef OID="DM" Name="DM" Repeating="No">
        <ItemRef ItemOID="DM.BRTHDTC" OrderNumber="189" Mandatory="Yes"/>
        <ItemRef ItemOID="DM.AGE" OrderNumber="190" Mandatory="No"/>
        <ItemRef ItemOID="DM.SEX" OrderNumber="191" Mandatory="Yes"/>
        <ItemRef ItemOID="DM.CHILDBEAR" OrderNumber="192" Mandatory="No"/>
        <ItemRef ItemOID="DM.RACE" OrderNumber="193" Mandatory="Yes"/>
        <ItemRef ItemOID="DM.COUNTRY" OrderNumber="194" Mandatory="No"/>
        <ItemRef ItemOID="DM.DSSTDT" OrderNumber="195" Mandatory="Yes"/>
      </ItemGroupDef>
      <ItemGroupDef OID="CM" Name="CM" Repeating="No">
        <ItemRef ItemOID="CM.CMSTAT" OrderNumber="196" Mandatory="Yes"/>
        <ItemRef ItemOID="CM.HIDDEN_NOW" OrderNumber="197" Mandatory="No"/>
        <ItemRef ItemOID="CM.CMREASND" OrderNumber="198" Mandatory="No"/>
      </ItemGroupDef>
      <ItemGroupDef OID="CM_LOG_LINE" Name="CM_LOG_LINE" Repeating="Yes">
        <ItemRef ItemOID="CM.CMTRT" OrderNumber="199" Mandatory="No"/>
        <ItemRef ItemOID="CM.CMDOSTOT" OrderNumber="200" Mandatory="No"/>
        <ItemRef ItemOID="CM.CMDOSU" OrderNumber="201" Mandatory="No"/>
        <ItemRef ItemOID="CM.CMDOSFRM" OrderNumber="202" Mandatory="No"/>
        <ItemRef ItemOID="CM.CMDOSFRQ" OrderNumber="203" Mandatory="No"/>
        <ItemRef ItemOID="CM.CMROUTE" OrderNumber="204" Mandatory="No"/>
        <ItemRef ItemOID="CM.CMDOSRGM" OrderNumber="205" Mandatory="No"/>
        <ItemRef ItemOID="CM.CMSTDTC" OrderNumber="206" Mandatory="No"/>
        <ItemRef ItemOID="CM.CMONG" OrderNumber="207" Mandatory="No"/>
        <ItemRef ItemOID="CM.CMENDTC" OrderNumber="208" Mandatory="No"/>
        <ItemRef ItemOID="CM.CMDUR" OrderNumber="209" Mandatory="No"/>
        <ItemRef ItemOID="CM.CMINDC" OrderNumber="210" Mandatory="No"/>
      </ItemGroupDef>
      <ItemGroupDef OID="PRG" Name="PRG" Repeating="No">
        <ItemRef ItemOID="PRG.DATE_PREG" OrderNumber="211" Mandatory="No"/>
        <ItemRef ItemOID="PRG.PREG_RESULT" OrderNumber="212" Mandatory="No"/>
      </ItemGroupDef>
      <ItemGroupDef OID="EG" Name="EG" Repeating="No">
        <ItemRef ItemOID="EG.EGSTAT" OrderNumber="213" Mandatory="No"/>
        <ItemRef ItemOID="EG.EGREASND" OrderNumber="214" Mandatory="No"/>
        <ItemRef ItemOID="EG.EDGDTC" OrderNumber="215" Mandatory="No"/>
        <ItemRef ItemOID="EG.EDGTM" OrderNumber="216" Mandatory="No"/>
        <ItemRef ItemOID="EG.ECG_ATTACH" OrderNumber="217" Mandatory="No"/>
        <ItemRef ItemOID="EG.EGPOS" OrderNumber="218" Mandatory="No"/>
        <ItemRef ItemOID="EG.EGMETHOD" OrderNumber="219" Mandatory="No"/>
        <ItemRef ItemOID="EG.EGORRES_NUM" OrderNumber="220" Mandatory="No"/>
        <ItemRef ItemOID="EG.EGORRES_3" OrderNumber="223" Mandatory="No"/>
        <ItemRef ItemOID="EG.EGORRES_QRS" OrderNumber="224" Mandatory="No"/>
        <ItemRef ItemOID="EG.EGORRES_QT" OrderNumber="225" Mandatory="No"/>
        <ItemRef ItemOID="EG.EGORRES_RR" OrderNumber="226" Mandatory="No"/>
        <ItemRef ItemOID="EG.EGORRES_QTC" OrderNumber="227" Mandatory="No"/>
        <ItemRef ItemOID="EG.EGORRES_AQRS" OrderNumber="228" Mandatory="No"/>
        <ItemRef ItemOID="EG.ECG_RHYTHM" OrderNumber="229" Mandatory="No"/>
        <ItemRef ItemOID="EG.EGORRES_NORMAB" OrderNumber="230" Mandatory="No"/>
        <ItemRef ItemOID="EG.EGORRES_NORMAB1" OrderNumber="233" Mandatory="No"/>
        <ItemRef ItemOID="EG.EGORRES_NORMAB2" OrderNumber="234" Mandatory="No"/>
        <ItemRef ItemOID="EG.EGORRES_ABSPRES" OrderNumber="235" Mandatory="No"/>
        <ItemRef ItemOID="EG.EGORRES_EXTRA" OrderNumber="236" Mandatory="No"/>
        <ItemRef ItemOID="EG.EGORRES_CHAM" OrderNumber="237" Mandatory="No"/>
        <ItemRef ItemOID="EG.EGORRES_NORMAB3" OrderNumber="238" Mandatory="No"/>
        <ItemRef ItemOID="EG.EGORRES_NORMAB4" OrderNumber="239" Mandatory="No"/>
        <ItemRef ItemOID="EG.EDEVAL" OrderNumber="240" Mandatory="No"/>
        <ItemRef ItemOID="EG.EGXFN" OrderNumber="241" Mandatory="No"/>
        <ItemRef ItemOID="EG.EGNAM" OrderNumber="242" Mandatory="No"/>
        <ItemRef ItemOID="EG.EGLOINC" OrderNumber="243" Mandatory="No"/>
      </ItemGroupDef>
      <ItemGroupDef OID="LOGPAD_SIGNINGUNITDEF_903_LOG_LINE" Name="LOGPAD_SIGNINGUNITDEF_903_LOG_LINE" Repeating="Yes">
        <ItemRef ItemOID="LOGPAD_SIGNINGUNITDEF_903.LOGPAD_ITEMDEF_216" OrderNumber="244" Mandatory="No"/>
        <ItemRef ItemOID="LOGPAD_SIGNINGUNITDEF_903.LOGPAD_ITEMDEF_766" OrderNumber="245" Mandatory="No"/>
        <ItemRef ItemOID="LOGPAD_SIGNINGUNITDEF_903.LOGPAD_ITEMDEF_770" OrderNumber="246" Mandatory="No"/>
        <ItemRef ItemOID="LOGPAD_SIGNINGUNITDEF_903.LOGPAD_ITEMDEF_772" OrderNumber="247" Mandatory="No"/>
        <ItemRef ItemOID="LOGPAD_SIGNINGUNITDEF_903.LOGPAD_ITEMDEF_774" OrderNumber="248" Mandatory="No"/>
        <ItemRef ItemOID="LOGPAD_SIGNINGUNITDEF_903.LOGPAD_ITEMDEF_776" OrderNumber="249" Mandatory="No"/>
        <ItemRef ItemOID="LOGPAD_SIGNINGUNITDEF_903.LOGPAD_ITEMDEF_794" OrderNumber="250" Mandatory="No"/>
        <ItemRef ItemOID="LOGPAD_SIGNINGUNITDEF_903.LOGPAD_ITEMDEF_214" OrderNumber="251" Mandatory="No"/>
        <ItemRef ItemOID="LOGPAD_SIGNINGUNITDEF_903.LOGPAD_ITEMDEF_317" OrderNumber="252" Mandatory="No"/>
        <ItemRef ItemOID="LOGPAD_SIGNINGUNITDEF_903.LOGPAD_ITEMDEF_230" OrderNumber="253" Mandatory="No"/>
        <ItemRef ItemOID="LOGPAD_SIGNINGUNITDEF_903.LOGPAD_ITEMDEF_232" OrderNumber="254" Mandatory="No"/>
        <ItemRef ItemOID="LOGPAD_SIGNINGUNITDEF_903.LOGPAD_ITEMDEF_212" OrderNumber="255" Mandatory="No"/>
        <ItemRef ItemOID="LOGPAD_SIGNINGUNITDEF_903.LOGPAD_ITEMDEF_224" OrderNumber="256" Mandatory="No"/>
        <ItemRef ItemOID="LOGPAD_SIGNINGUNITDEF_903.LOGPAD_ITEMDEF_220" OrderNumber="257" Mandatory="No"/>
        <ItemRef ItemOID="LOGPAD_SIGNINGUNITDEF_903.LOGPAD_ITEMDEF_222" OrderNumber="258" Mandatory="No"/>
        <ItemRef ItemOID="LOGPAD_SIGNINGUNITDEF_903.LOGPAD_ITEMDEF_530" OrderNumber="259" Mandatory="No"/>
        <ItemRef ItemOID="LOGPAD_SIGNINGUNITDEF_903.LOGPAD_ITEMDEF_300" OrderNumber="260" Mandatory="No"/>
        <ItemRef ItemOID="LOGPAD_SIGNINGUNITDEF_903.LOGPAD_ITEMDEF_1054" OrderNumber="261" Mandatory="No"/>
        <ItemRef ItemOID="LOGPAD_SIGNINGUNITDEF_903.LOGPAD_ITEMDEF_1056" OrderNumber="262" Mandatory="No"/>
      </ItemGroupDef>
      <ItemGroupDef OID="LOGPAD_SIGNINGUNITDEF_946_LOG_LINE" Name="LOGPAD_SIGNINGUNITDEF_946_LOG_LINE" Repeating="Yes">
        <ItemRef ItemOID="LOGPAD_SIGNINGUNITDEF_946.LOGPAD_ITEMDEF_216" OrderNumber="263" Mandatory="No"/>
        <ItemRef ItemOID="LOGPAD_SIGNINGUNITDEF_946.LOGPAD_ITEMDEF_780" OrderNumber="264" Mandatory="No"/>
        <ItemRef ItemOID="LOGPAD_SIGNINGUNITDEF_946.LOGPAD_ITEMDEF_784" OrderNumber="265" Mandatory="No"/>
        <ItemRef ItemOID="LOGPAD_SIGNINGUNITDEF_946.LOGPAD_ITEMDEF_786" OrderNumber="266" Mandatory="No"/>
        <ItemRef ItemOID="LOGPAD_SIGNINGUNITDEF_946.LOGPAD_ITEMDEF_796" OrderNumber="267" Mandatory="No"/>
        <ItemRef ItemOID="LOGPAD_SIGNINGUNITDEF_946.LOGPAD_ITEMDEF_214" OrderNumber="268" Mandatory="No"/>
        <ItemRef ItemOID="LOGPAD_SIGNINGUNITDEF_946.LOGPAD_ITEMDEF_317" OrderNumber="269" Mandatory="No"/>
        <ItemRef ItemOID="LOGPAD_SIGNINGUNITDEF_946.LOGPAD_ITEMDEF_230" OrderNumber="270" Mandatory="No"/>
        <ItemRef ItemOID="LOGPAD_SIGNINGUNITDEF_946.LOGPAD_ITEMDEF_232" OrderNumber="271" Mandatory="No"/>
        <ItemRef ItemOID="LOGPAD_SIGNINGUNITDEF_946.LOGPAD_ITEMDEF_212" OrderNumber="272" Mandatory="No"/>
        <ItemRef ItemOID="LOGPAD_SIGNINGUNITDEF_946.LOGPAD_ITEMDEF_224" OrderNumber="273" Mandatory="No"/>
        <ItemRef ItemOID="LOGPAD_SIGNINGUNITDEF_946.LOGPAD_ITEMDEF_220" OrderNumber="274" Mandatory="No"/>
        <ItemRef ItemOID="LOGPAD_SIGNINGUNITDEF_946.LOGPAD_ITEMDEF_222" OrderNumber="275" Mandatory="No"/>
        <ItemRef ItemOID="LOGPAD_SIGNINGUNITDEF_946.LOGPAD_ITEMDEF_530" OrderNumber="276" Mandatory="No"/>
        <ItemRef ItemOID="LOGPAD_SIGNINGUNITDEF_946.LOGPAD_ITEMDEF_300" OrderNumber="277" Mandatory="No"/>
      </ItemGroupDef>
      <ItemGroupDef OID="MH" Name="MH" Repeating="No">
        <ItemRef ItemOID="MH.MHSTAT" OrderNumber="278" Mandatory="Yes"/>
        <ItemRef ItemOID="MH.MHREASND" OrderNumber="279" Mandatory="No"/>
        <ItemRef ItemOID="MH.HIDDEN_NOW_MEDHIST" OrderNumber="280" Mandatory="No"/>
        <ItemRef ItemOID="MH.MHYN" OrderNumber="281" Mandatory="No"/>
      </ItemGroupDef>
      <ItemGroupDef OID="MH_LOG_LINE" Name="MH_LOG_LINE" Repeating="Yes">
        <ItemRef ItemOID="MH.MHBODSYS" OrderNumber="282" Mandatory="No"/>
        <ItemRef ItemOID="MH.MHTERM" OrderNumber="283" Mandatory="No"/>
        <ItemRef ItemOID="MH.MHSTDTC" OrderNumber="284" Mandatory="No"/>
        <ItemRef ItemOID="MH.MHONGNY" OrderNumber="285" Mandatory="No"/>
        <ItemRef ItemOID="MH.MHENDTC" OrderNumber="286" Mandatory="No"/>
      </ItemGroupDef>
      <ItemGroupDef OID="TUMOR" Name="TUMOR" Repeating="No">
        <ItemRef ItemOID="TUMOR.TUMOR_DATE" OrderNumber="287" Mandatory="No"/>
        <ItemRef ItemOID="TUMOR.TUMOR_VOLUME" OrderNumber="288" Mandatory="No"/>
        <ItemRef ItemOID="TUMOR.TUMOR_DESC" OrderNumber="289" Mandatory="No"/>
        <ItemRef ItemOID="TUMOR.TUMOR_XRAY" OrderNumber="290" Mandatory="No"/>
      </ItemGroupDef>
      <ItemDef OID="VISIT.DTC" Name="DTC" DataType="date">
        <Question>
          <TranslatedText xml:lang="en">Visit Date:</TranslatedText>
          <TranslatedText xml:lang="ja">Visit Date:</TranslatedText>
        </Question>
      </ItemDef>
      <ItemDef OID="EX.EXTRT" Name="EXTRT" DataType="text" Length="25">
        <Question>
          <TranslatedText xml:lang="en">Treatment Name:</TranslatedText>
          <TranslatedText xml:lang="ja">Treatment Name:</TranslatedText>
        </Question>
      </ItemDef>
      <ItemDef OID="EX.EXDOSE" Name="EXDOSE" DataType="integer" Length="3">
        <Question>
          <TranslatedText xml:lang="en">Dose 1:</TranslatedText>
          <TranslatedText xml:lang="ja">Dose 1:</TranslatedText>
        </Question>
        
        
      </ItemDef>
      <ItemDef OID="EX.EXDOSTXT" Name="EXDOSTXT" DataType="text" Length="25">
        <Question>
          <TranslatedText xml:lang="en">Dose:</TranslatedText>
          <TranslatedText xml:lang="ja">Dose:</TranslatedText>
        </Question>
      </ItemDef>
      <ItemDef OID="EX.EXDOSTOT" Name="EXDOSTOT" DataType="integer" Length="10">
        <Question>
          <TranslatedText xml:lang="en">Total Daily Dose:</TranslatedText>
          <TranslatedText xml:lang="ja">Total Daily Dose:</TranslatedText>
        </Question>
      </ItemDef>
      <ItemDef OID="EX.EXDOSU" Name="EXDOSU" DataType="text" Length="5">
        <Question>
          <TranslatedText xml:lang="en">Dose Units:</TranslatedText>
          <TranslatedText xml:lang="ja">Dose Units:</TranslatedText>
        </Question>
      </ItemDef>
      <ItemDef OID="EX.EXSTDTC" Name="EXSTDTC" DataType="date">
        <Question>
          <TranslatedText xml:lang="en">Treatment Start Date:</TranslatedText>
          <TranslatedText xml:lang="ja">Treatment Start Date:</TranslatedText>
        </Question>
      </ItemDef>
      <ItemDef OID="EX.EXSTDTM" Name="EXSTDTM" DataType="time">
        <Question>
          <TranslatedText xml:lang="en">Treatment Start Time:</TranslatedText>
          <TranslatedText xml:lang="ja">Treatment Start Time:</TranslatedText>
        </Question>
      </ItemDef>
      <ItemDef OID="EX.EXENDTC" Name="EXENDTC" DataType="date">
        <Question>
          <TranslatedText xml:lang="en">Treatment End Date:</TranslatedText>
          <TranslatedText xml:lang="ja">Treatment End Date:</TranslatedText>
        </Question>
      </ItemDef>
      <ItemDef OID="EX.EXENDTM" Name="EXENDTM" DataType="time">
        <Question>
          <TranslatedText xml:lang="en">Treatment End Time:</TranslatedText>
          <TranslatedText xml:lang="ja">Treatment End Time:</TranslatedText>
        </Question>
      </ItemDef>
      <ItemDef OID="EX.EXDUR" Name="EXDUR" DataType="integer" Length="10">
        <Question>
          <TranslatedText xml:lang="en">Duration of Treatment:</TranslatedText>
          <TranslatedText xml:lang="ja">Duration of Treatment:</TranslatedText>
        </Question>
      </ItemDef>
      <ItemDef OID="EX.EXDOSFRM" Name="EXDOSFRM" DataType="text" Length="25">
        <Question>
          <TranslatedText xml:lang="en">Dose Form:</TranslatedText>
          <TranslatedText xml:lang="ja">Dose Form:</TranslatedText>
        </Question>
      </ItemDef>
      <ItemDef OID="EX.EXDOSFRQ" Name="EXDOSFRQ" DataType="text" Length="25">
        <Question>
          <TranslatedText xml:lang="en">Frequency:</TranslatedText>
          <TranslatedText xml:lang="ja">Frequency:</TranslatedText>
        </Question>
        <CodeListRef CodeListOID="FREQUENCY"/>
      </ItemDef>
      <ItemDef OID="EX.EXROUTE" Name="EXROUTE" DataType="text" Length="25">
        <Question>
          <TranslatedText xml:lang="en">Route:</TranslatedText>
          <TranslatedText xml:lang="ja">Route:</TranslatedText>
        </Question>
        <CodeListRef CodeListOID="ROUTE"/>
      </ItemDef>
      <ItemDef OID="EX.EXDOSRGM" Name="EXDOSRGM" DataType="text" Length="25">
        <Question>
          <TranslatedText xml:lang="en">Regimen:</TranslatedText>
          <TranslatedText xml:lang="ja">Regimen:</TranslatedText>
        </Question>
      </ItemDef>
      <ItemDef OID="EX.EXLOC" Name="EXLOC" DataType="text" Length="25">
        <Question>
          <TranslatedText xml:lang="en">Location of Dose Administration:</TranslatedText>
          <TranslatedText xml:lang="ja">Location of Dose Administration:</TranslatedText>
        </Question>
      </ItemDef>
      <ItemDef OID="EX.EXTRTV" Name="EXTRTV" DataType="text" Length="25">
        <Question>
          <TranslatedText xml:lang="en">Treatment Vehicle:</TranslatedText>
          <TranslatedText xml:lang="ja">Treatment Vehicle:</TranslatedText>
        </Question>
      </ItemDef>
      <ItemDef OID="EX.EXLOT" Name="EXLOT" DataType="text" Length="10">
        <Question>
          <TranslatedText xml:lang="en">Lot Number:</TranslatedText>
          <TranslatedText xml:lang="ja">Lot Number:</TranslatedText>
        </Question>
      </ItemDef>
      <ItemDef OID="PE.PESTAT" Name="PESTAT" DataType="text" Length="3">
        <Question>
          <TranslatedText xml:lang="en">Was the Physical Exam Performed?</TranslatedText>
          <TranslatedText xml:lang="ja">Was the Physical Exam Performed?</TranslatedText>
        </Question>
        <CodeListRef CodeListOID="YESNO"/>
      </ItemDef>
      <ItemDef OID="PE.PEDT" Name="pedt" DataType="date">
        <Question>
          <TranslatedText xml:lang="en">Date of eximation:</TranslatedText>
          <TranslatedText xml:lang="ja">Date of eximation:</TranslatedText>
        </Question>
      </ItemDef>
      <ItemDef OID="PE.PEREASND" Name="PEREASND" DataType="text" Length="200">
        <Question>
          <TranslatedText xml:lang="en">Reason Not Examined:</TranslatedText>
          <TranslatedText xml:lang="ja">Reason Not Examined:</TranslatedText>
        </Question>
      </ItemDef>
      <ItemDef OID="PE.PEYN" Name="PEYN" DataType="text" Length="3">
        <Question>
          <TranslatedText xml:lang="en">Are there any physical exam findings (excluding study indication) existing prior to or on entry to the trial that are considered relevant to the study?</TranslatedText>
          <TranslatedText xml:lang="ja">Are there any physical exam findings (excluding study indication) existing prior to or on entry to the trial that are considered relevant to the study?</TranslatedText>
        </Question>
        <CodeListRef CodeListOID="YESNO"/>
      </ItemDef>
      <ItemDef OID="PE.PETEST" Name="PETEST" DataType="text" Length="25">
        <Question>
          <TranslatedText xml:lang="en">Body System:</TranslatedText>
          <TranslatedText xml:lang="ja">Body System:</TranslatedText>
        </Question>
        <CodeListRef CodeListOID="BODYSYSTEM"/>
      </ItemDef>
      <ItemDef OID="PE.PELOC" Name="PELOC" DataType="text" Length="25">
        <Question>
          <TranslatedText xml:lang="en">Location of Physical Exam Finding:</TranslatedText>
          <TranslatedText xml:lang="ja">Location of Physical Exam Finding:</TranslatedText>
        </Question>
      </ItemDef>
      <ItemDef OID="PE.PEORRES" Name="PEORRES" DataType="text" Length="25">
        <Question>
          <TranslatedText xml:lang="en">Finding:</TranslatedText>
          <TranslatedText xml:lang="ja">Finding:</TranslatedText>
        </Question>
      </ItemDef>
      <ItemDef OID="PE.PESEV" Name="PESEV" DataType="text" Length="25">
        <Question>
          <TranslatedText xml:lang="en">Severity/Intensity:</TranslatedText>
          <TranslatedText xml:lang="ja">Severity/Intensity:</TranslatedText>
        </Question>
      </ItemDef>
      <ItemDef OID="VS.VSSTAT" Name="VSSTAT" DataType="text" Length="1">
        <Question>
          <TranslatedText xml:lang="en">Were Vital Signs Collected?</TranslatedText>
          <TranslatedText xml:lang="ja">Were Vital Signs Collected?</TranslatedText>
        </Question>
        <CodeListRef CodeListOID="YESNO"/>
      </ItemDef>
      <ItemDef OID="VS.VSREASND" Name="VSREASND" DataType="text" Length="200">
        <Question>
          <TranslatedText xml:lang="en">Please provide the reason Vital Signs were not collected:</TranslatedText>
          <TranslatedText xml:lang="ja">Please provide the reason Vital Signs were not collected:</TranslatedText>
        </Question>
      </ItemDef>
      <ItemDef OID="VS.VSDTC" Name="VSDTC" DataType="date">
        <Question>
          <TranslatedText xml:lang="en">Date of Measurements:</TranslatedText>
          <TranslatedText xml:lang="ja">Date of Measurements:</TranslatedText>
        </Question>
      </ItemDef>
      <ItemDef OID="VS.VSORRESHT" Name="VSORRESHT" DataType="float" Length="4" SignificantDigits="1">
        <Question>
          <TranslatedText xml:lang="en">Height:</TranslatedText>
          <TranslatedText xml:lang="ja">Height:</TranslatedText>
        </Question>
        <MeasurementUnitRef MeasurementUnitOID="1015.HeightUnits.Centimeters"/>
      </ItemDef>
      <ItemDef OID="VS.WEIGHT" Name="WEIGHT" DataType="float" Length="4" SignificantDigits="1">
        <Question>
          <TranslatedText xml:lang="en">Weight:</TranslatedText>
          <TranslatedText xml:lang="ja">Weight:</TranslatedText>
        </Question>
        <MeasurementUnitRef MeasurementUnitOID="1015.WeightUnits.KG"/>
      </ItemDef>
      <ItemDef OID="VS.BMI" Name="BMI" DataType="float" Length="4" SignificantDigits="2">
        <Question>
          <TranslatedText xml:lang="en">BMI (Calculated)</TranslatedText>
          <TranslatedText xml:lang="ja">BMI (Calculated)</TranslatedText>
        </Question>
      </ItemDef>
      <ItemDef OID="VS.SYSBP" Name="SYSBP" DataType="integer" Length="3">
        <Question>
          <TranslatedText xml:lang="en">Systolic Blood Pressure:</TranslatedText>
          <TranslatedText xml:lang="ja">Systolic Blood Pressure:</TranslatedText>
        </Question>
        <MeasurementUnitRef MeasurementUnitOID="mmHg"/>
        <RangeCheck Comparator="GE" SoftHard="Soft">
          <CheckValue>80</CheckValue>
        </RangeCheck>
        <RangeCheck Comparator="LE" SoftHard="Soft">
          <CheckValue>210</CheckValue>
        </RangeCheck>
        
        
        
        
      </ItemDef>
      <ItemDef OID="VS.DIABP" Name="DIABP" DataType="integer" Length="3">
        <Question>
          <TranslatedText xml:lang="en">Diastolic Blood Pressure:</TranslatedText>
          <TranslatedText xml:lang="ja">Diastolic Blood Pressure:</TranslatedText>
        </Question>
        <MeasurementUnitRef MeasurementUnitOID="mmHg"/>
        <RangeCheck Comparator="GE" SoftHard="Soft">
          <CheckValue>40</CheckValue>
        </RangeCheck>
        <RangeCheck Comparator="LE" SoftHard="Soft">
          <CheckValue>130</CheckValue>
        </RangeCheck>
      </ItemDef>
      <ItemDef OID="VS.BPLOC" Name="BPLOC" DataType="text" Length="200">
        <Question>
          <TranslatedText xml:lang="en">Location of Blood Pressure Measurement:</TranslatedText>
          <TranslatedText xml:lang="ja">Location of Blood Pressure Measurement:</TranslatedText>
        </Question>
      </ItemDef>
      <ItemDef OID="VS.BPPOS" Name="BPPOS" DataType="text" Length="200">
        <Question>
          <TranslatedText xml:lang="en">Position of Subject during Blood Pressure Measurement:</TranslatedText>
          <TranslatedText xml:lang="ja">Position of Subject during Blood Pressure Measurement:</TranslatedText>
        </Question>
        <CodeListRef CodeListOID="POSITIONS"/>
      </ItemDef>
      <ItemDef OID="VS.HEART" Name="HEART" DataType="integer" Length="3">
        <Question>
          <TranslatedText xml:lang="en">Heart Rate:</TranslatedText>
          <TranslatedText xml:lang="ja">Heart Rate:</TranslatedText>
        </Question>
        <MeasurementUnitRef MeasurementUnitOID="BPM"/>
      </ItemDef>
      <ItemDef OID="VS.HEARTLOC" Name="HEARTLOC" DataType="text" Length="200">
        <Question>
          <TranslatedText xml:lang="en">Location of Heart Rate Measurement:</TranslatedText>
          <TranslatedText xml:lang="ja">Location of Heart Rate Measurement:</TranslatedText>
        </Question>
      </ItemDef>
      <ItemDef OID="VS.HEARTPOS" Name="HEARTPOS" DataType="text" Length="200">
        <Question>
          <TranslatedText xml:lang="en">Position of Subject during Heart Rate Measurement:</TranslatedText>
          <TranslatedText xml:lang="ja">Position of Subject during Heart Rate Measurement:</TranslatedText>
        </Question>
        <CodeListRef CodeListOID="POSITIONS"/>
      </ItemDef>
      <ItemDef OID="VS.PULSE" Name="PULSE" DataType="integer" Length="3">
        <Question>
          <TranslatedText xml:lang="en">Pulse Rate:</TranslatedText>
          <TranslatedText xml:lang="ja">Pulse Rate:</TranslatedText>
        </Question>
        <MeasurementUnitRef MeasurementUnitOID="BPM"/>
      </ItemDef>
      <ItemDef OID="VS.PULSELOC" Name="PULSELOC" DataType="text" Length="200">
        <Question>
          <TranslatedText xml:lang="en">Location of Pulse Measurement:</TranslatedText>
          <TranslatedText xml:lang="ja">Location of Pulse Measurement:</TranslatedText>
        </Question>
      </ItemDef>
      <ItemDef OID="VS.PULSEPOS" Name="PULSEPOS" DataType="text" Length="200">
        <Question>
          <TranslatedText xml:lang="en">Position of Subject during Pulse Measurement:</TranslatedText>
          <TranslatedText xml:lang="ja">Position of Subject during Pulse Measurement:</TranslatedText>
        </Question>
        <CodeListRef CodeListOID="POSITIONS"/>
      </ItemDef>
      <ItemDef OID="VS.TEMP" Name="TEMP" DataType="float" Length="4" SignificantDigits="1">
        <Question>
          <TranslatedText xml:lang="en">Temperature:</TranslatedText>
          <TranslatedText xml:lang="ja">Temperature:</TranslatedText>
        </Question>
        <MeasurementUnitRef MeasurementUnitOID="1015.TemperatureUnits.Celsius"/>
      </ItemDef>
      <ItemDef OID="VS.TEMPLOC" Name="TEMPLOC" DataType="text" Length="200">
        <Question>
          <TranslatedText xml:lang="en">Location of Temperature Measurement:</TranslatedText>
          <TranslatedText xml:lang="ja">Location of Temperature Measurement:</TranslatedText>
        </Question>
      </ItemDef>
      <ItemDef OID="VS.TEMPPOS" Name="TEMPPOS" DataType="text" Length="200">
        <Question>
          <TranslatedText xml:lang="en">Position of Subject during Temperature Measurement:</TranslatedText>
          <TranslatedText xml:lang="ja">Position of Subject during Temperature Measurement:</TranslatedText>
        </Question>
        <CodeListRef CodeListOID="POSITIONS"/>
      </ItemDef>
      <ItemDef OID="VS.RESP" Name="RESP" DataType="integer" Length="3">
        <Question>
          <TranslatedText xml:lang="en">Respiration Rate:</TranslatedText>
          <TranslatedText xml:lang="ja">Respiration Rate:</TranslatedText>
        </Question>
        <MeasurementUnitRef MeasurementUnitOID="per minute"/>
      </ItemDef>
      <ItemDef OID="VS.RESPPOS" Name="RESPPOS" DataType="text" Length="200">
        <Question>
          <TranslatedText xml:lang="en">Position of Subject during Respiration rate Measurement:</TranslatedText>
          <TranslatedText xml:lang="ja">Position of Subject during Respiration rate Measurement:</TranslatedText>
        </Question>
        <CodeListRef CodeListOID="POSITIONS"/>
      </ItemDef>
      <ItemDef OID="VS.BSA" Name="BSA" DataType="float" Length="4" SignificantDigits="3">
        <Question>
          <TranslatedText xml:lang="en">Body Surface Area (BSA Calculated)</TranslatedText>
          <TranslatedText xml:lang="ja">Body Surface Area (BSA Calculated)</TranslatedText>
        </Question>
        
        
        
        
      </ItemDef>
      <ItemDef OID="AE.AEYN" Name="AEYN" DataType="text" Length="1">
        <Question>
          <TranslatedText xml:lang="en">Were there any Adverse Events?</TranslatedText>
          <TranslatedText xml:lang="ja">Were there any Adverse Events?</TranslatedText>
        </Question>
        <CodeListRef CodeListOID="YESNO"/>
      </ItemDef>
      <ItemDef OID="AE.LLT" Name="LLT" DataType="text" Length="200">
        <Question>
          <TranslatedText xml:lang="en">LLT - Low Level Term</TranslatedText>
          <TranslatedText xml:lang="ja">LLT - Low Level Term</TranslatedText>
        </Question>
        
        
      </ItemDef>
      <ItemDef OID="AE.AETERM" Name="AETERM" DataType="text" Length="200">
        <Question>
          <TranslatedText xml:lang="en">Event Description: &lt;i&gt;(Give diagnosis if possible)&lt;/i&gt;</TranslatedText>
          <TranslatedText xml:lang="ja">Event Description: &lt;i&gt;(Give diagnosis if possible)&lt;/i&gt;</TranslatedText>
        </Question>
        
        
      </ItemDef>
      <ItemDef OID="AE.AESTDTC" Name="AESTDTC" DataType="date">
        <Question>
          <TranslatedText xml:lang="en">Start Date:</TranslatedText>
          <TranslatedText xml:lang="ja">Start Date:</TranslatedText>
        </Question>
      </ItemDef>
      <ItemDef OID="AE.AEONG" Name="AEONG" DataType="text" Length="1">
        <Question>
          <TranslatedText xml:lang="en">Ongoing?</TranslatedText>
          <TranslatedText xml:lang="ja">Ongoing?</TranslatedText>
        </Question>
        <CodeListRef CodeListOID="YESNO"/>
      </ItemDef>
      <ItemDef OID="AE.AEENDTC" Name="AEENDTC" DataType="date">
        <Question>
          <TranslatedText xml:lang="en">End Date:</TranslatedText>
          <TranslatedText xml:lang="ja">End Date:</TranslatedText>
        </Question>
      </ItemDef>
      <ItemDef OID="AE.AELOC" Name="AELOC" DataType="text" Length="50">
        <Question>
          <TranslatedText xml:lang="en">Location of the Reaction:</TranslatedText>
          <TranslatedText xml:lang="ja">Location of the Reaction:</TranslatedText>
        </Question>
        
        
      </ItemDef>
      <ItemDef OID="AE.AESEV" Name="AESEV" DataType="text" Length="10">
        <Question>
          <TranslatedText xml:lang="en">Severity:</TranslatedText>
          <TranslatedText xml:lang="ja">Severity:</TranslatedText>
        </Question>
        <CodeListRef CodeListOID="SEVERITY"/>
      </ItemDef>
      <ItemDef OID="AE.AEACN" Name="AEACN" DataType="text" Length="25">
        <Question>
          <TranslatedText xml:lang="en">Action Taken:</TranslatedText>
          <TranslatedText xml:lang="ja">Action Taken:</TranslatedText>
        </Question>
        <CodeListRef CodeListOID="AEACTIONTAKEN"/>
      </ItemDef>
      <ItemDef OID="AE.AEACNOTH" Name="AEACNOTH" DataType="text" Length="200">
        <Question>
          <TranslatedText xml:lang="en">Other Action Taken:</TranslatedText>
          <TranslatedText xml:lang="ja">Other Action Taken:</TranslatedText>
        </Question>
      </ItemDef>
      <ItemDef OID="AE.AEREL" Name="AEREL" DataType="text" Length="25">
        <Question>
          <TranslatedText xml:lang="en">Relationship to Study treatment:</TranslatedText>
          <TranslatedText xml:lang="ja">Relationship to Study treatment:</TranslatedText>
        </Question>
        <CodeListRef CodeListOID="RELATIONSHIP"/>
        
        
      </ItemDef>
      <ItemDef OID="AE.AERELNST" Name="AERELNST" DataType="text" Length="200">
        <Question>
          <TranslatedText xml:lang="en">Relationship to Non-Study Treatment:</TranslatedText>
          <TranslatedText xml:lang="ja">Relationship to Non-Study Treatment:</TranslatedText>
        </Question>
        
        
      </ItemDef>
      <ItemDef OID="AE.AEPATT" Name="AEPATT" DataType="text" Length="25">
        <Question>
          <TranslatedText xml:lang="en">Frequency:</TranslatedText>
          <TranslatedText xml:lang="ja">Frequency:</TranslatedText>
        </Question>
        <CodeListRef CodeListOID="AEFREQUENCY"/>
      </ItemDef>
      <ItemDef OID="AE.AEOUT" Name="AEOUT" DataType="text" Length="50">
        <Question>
          <TranslatedText xml:lang="en">Outcome:</TranslatedText>
          <TranslatedText xml:lang="ja">Outcome:</TranslatedText>
        </Question>
        <CodeListRef CodeListOID="OUTCOME"/>
        
        
      </ItemDef>
      <ItemDef OID="AE.AECONTRT" Name="AECONTRT" DataType="text" Length="1">
        <Question>
          <TranslatedText xml:lang="en">Was other treatment given?</TranslatedText>
          <TranslatedText xml:lang="ja">Was other treatment given?</TranslatedText>
        </Question>
        <CodeListRef CodeListOID="YESNO"/>
        
        
      </ItemDef>
      <ItemDef OID="AE.AECONTRTSP" Name="AECONTRTSP" DataType="text" Length="50">
        <Question>
          <TranslatedText xml:lang="en">If Yes, please specify:</TranslatedText>
          <TranslatedText xml:lang="ja">If Yes, please specify:</TranslatedText>
        </Question>
        
        
      </ItemDef>
      <ItemDef OID="AE.AESER" Name="AESER" DataType="text" Length="1">
        <Question>
          <TranslatedText xml:lang="en">Is this a serious adverse event?</TranslatedText>
          <TranslatedText xml:lang="ja">Is this a serious adverse event?</TranslatedText>
        </Question>
        <CodeListRef CodeListOID="YESNO"/>
        
        
      </ItemDef>
      <ItemDef OID="AE.AESCAN" Name="AESCAN" DataType="integer" Length="1">
        <Question>
          <TranslatedText xml:lang="en">Involves Cancer:</TranslatedText>
          <TranslatedText xml:lang="ja">Involves Cancer:</TranslatedText>
        </Question>
        
        
      </ItemDef>
      <ItemDef OID="AE.AECONG" Name="AECONG" DataType="integer" Length="1">
        <Question>
          <TranslatedText xml:lang="en">Congenital Anomaly or Birth Defect:</TranslatedText>
          <TranslatedText xml:lang="ja">Congenital Anomaly or Birth Defect:</TranslatedText>
        </Question>
        
        
      </ItemDef>
      <ItemDef OID="AE.AESDISAB" Name="AESDISAB" DataType="integer" Length="1">
        <Question>
          <TranslatedText xml:lang="en">Results in significant disability:</TranslatedText>
          <TranslatedText xml:lang="ja">Results in significant disability:</TranslatedText>
        </Question>
        
        
      </ItemDef>
      <ItemDef OID="AE.AESDTH" Name="AESDTH" DataType="integer" Length="1">
        <Question>
          <TranslatedText xml:lang="en">Results in Death:</TranslatedText>
          <TranslatedText xml:lang="ja">Results in Death:</TranslatedText>
        </Question>
        
        
      </ItemDef>
      <ItemDef OID="AE.AESHOSP" Name="AESHOSP" DataType="integer" Length="1">
        <Question>
          <TranslatedText xml:lang="en">Requires or Prolongs Hospitalization:</TranslatedText>
          <TranslatedText xml:lang="ja">Requires or Prolongs Hospitalization:</TranslatedText>
        </Question>
        
        
      </ItemDef>
      <ItemDef OID="AE.AESLIFE" Name="AESLIFE" DataType="integer" Length="1">
        <Question>
          <TranslatedText xml:lang="en">Is Life Threatening:</TranslatedText>
          <TranslatedText xml:lang="ja">Is Life Threatening:</TranslatedText>
        </Question>
        
        
      </ItemDef>
      <ItemDef OID="AE.AESOD" Name="AESOD" DataType="integer" Length="1">
        <Question>
          <TranslatedText xml:lang="en">Occurred with Overdose:</TranslatedText>
          <TranslatedText xml:lang="ja">Occurred with Overdose:</TranslatedText>
        </Question>
        
        
      </ItemDef>
      <ItemDef OID="AE.AESMIE" Name="AESMIE" DataType="integer" Length="1">
        <Question>
          <TranslatedText xml:lang="en">Other Medically Important Serious Event:</TranslatedText>
          <TranslatedText xml:lang="ja">Other Medically Important Serious Event:</TranslatedText>
        </Question>
        
        
      </ItemDef>
      <ItemDef OID="AE.AESMIESP" Name="AESMIESP" DataType="text" Length="200">
        <Question>
          <TranslatedText xml:lang="en">Specify:</TranslatedText>
          <TranslatedText xml:lang="ja">Specify:</TranslatedText>
        </Question>
      </ItemDef>
      <ItemDef OID="IMAGE.DATE_IMG" Name="DATE_IMG" DataType="date">
        <Question>
          <TranslatedText xml:lang="en">Image Date</TranslatedText>
          <TranslatedText xml:lang="ja">Image Date</TranslatedText>
        </Question>
        
        
      </ItemDef>
      <ItemDef OID="IMAGE.DESCRIPTION" Name="DESCRIPTION" DataType="text" Length="250">
        <Question>
          <TranslatedText xml:lang="en">Image Description</TranslatedText>
          <TranslatedText xml:lang="ja">Image Description</TranslatedText>
        </Question>
        
        
      </ItemDef>
      <ItemDef OID="IMAGE.IMAGE" Name="IMAGE" DataType="text" Length="200">
        <Question>
          <TranslatedText xml:lang="en">Upload image</TranslatedText>
          <TranslatedText xml:lang="ja">Upload image</TranslatedText>
        </Question>
        
        
      </ItemDef>
      <ItemDef OID="BLOOD.WBC" Name="WBC" DataType="float" Length="3" SignificantDigits="1">
        <Question>
          <TranslatedText xml:lang="en">White Blood Count (WBC)</TranslatedText>
          <TranslatedText xml:lang="ja">White Blood Count (WBC)</TranslatedText>
        </Question>
      </ItemDef>
      <ItemDef OID="BLOOD.RBC" Name="RBC" DataType="float" Length="2" SignificantDigits="1">
        <Question>
          <TranslatedText xml:lang="en">Red Blood Count (RBC)</TranslatedText>
          <TranslatedText xml:lang="ja">Red Blood Count (RBC)</TranslatedText>
        </Question>
      </ItemDef>
      <ItemDef OID="BLOOD.HEMOGLOBIN" Name="HEMOGLOBIN" DataType="integer" Length="2">
        <Question>
          <TranslatedText xml:lang="en">Hemoglobin</TranslatedText>
          <TranslatedText xml:lang="ja">Hemoglobin</TranslatedText>
        </Question>
      </ItemDef>
      <ItemDef OID="BLOOD.HEMATOCRIT" Name="HEMATOCRIT" DataType="integer" Length="2">
        <Question>
          <TranslatedText xml:lang="en">Hematocrit</TranslatedText>
          <TranslatedText xml:lang="ja">Hematocrit</TranslatedText>
        </Question>
      </ItemDef>
      <ItemDef OID="LAB_URINE.LBDT" Name="LBDT" DataType="date">
        <Question>
          <TranslatedText xml:lang="en">Assessment date:</TranslatedText>
          <TranslatedText xml:lang="ja">Assessment date:</TranslatedText>
        </Question>
        
        
      </ItemDef>
      <ItemDef OID="LAB_URINE.SPEC_GRAVITY" Name="SPEC_GRAVITY" DataType="float" Length="4" SignificantDigits="3">
        <Question>
          <TranslatedText xml:lang="en">Specific Gravity (SG)</TranslatedText>
          <TranslatedText xml:lang="ja">Specific Gravity (SG)</TranslatedText>
        </Question>
      </ItemDef>
      <ItemDef OID="LAB_URINE.URINE_PH" Name="URINE_PH" DataType="float" Length="2" SignificantDigits="1">
        <Question>
          <TranslatedText xml:lang="en">pH</TranslatedText>
          <TranslatedText xml:lang="ja">pH</TranslatedText>
        </Question>
      </ItemDef>
      <ItemDef OID="LAB_URINE.URINE_PROTEIN" Name="URINE_PROTEIN" DataType="integer" Length="1">
        <Question>
          <TranslatedText xml:lang="en">Protein</TranslatedText>
          <TranslatedText xml:lang="ja">Protein</TranslatedText>
        </Question>
        <CodeListRef CodeListOID="POSNEG"/>
      </ItemDef>
      <ItemDef OID="LAB_URINE.URINE_GLUCOSE" Name="URINE_GLUCOSE" DataType="integer" Length="1">
        <Question>
          <TranslatedText xml:lang="en">Glucose</TranslatedText>
          <TranslatedText xml:lang="ja">Glucose</TranslatedText>
        </Question>
        <CodeListRef CodeListOID="B02C95B4_A4F8_4E8A_8A64_2B735715C8C4"/>
      </ItemDef>
      <ItemDef OID="SU_SMOKE.SUSTAT" Name="SUSTAT (SUSTAT)" DataType="text" Length="1">
        <Question>
          <TranslatedText xml:lang="en">Was the Smoking History completed?</TranslatedText>
          <TranslatedText xml:lang="ja">Was the Smoking History completed?</TranslatedText>
        </Question>
        <CodeListRef CodeListOID="YESNO"/>
      </ItemDef>
      <ItemDef OID="SU_SMOKE.SUREASND" Name="SUREASND (SUREASND)" DataType="text" Length="200">
        <Question>
          <TranslatedText xml:lang="en">Please explain why the Smoking History was not completed:</TranslatedText>
          <TranslatedText xml:lang="ja">Please explain why the Smoking History was not completed:</TranslatedText>
        </Question>
      </ItemDef>
      <ItemDef OID="SU_SMOKE.SU_SMID" Name="SU_SMID" DataType="text" Length="80">
        <Question>
          <TranslatedText xml:lang="en">Please identify &lt;b&gt;one&lt;/b&gt; of the following smoking categories for the subject:</TranslatedText>
          <TranslatedText xml:lang="ja">Please identify &lt;b&gt;one&lt;/b&gt; of the following smoking categories for the subject:</TranslatedText>
        </Question>
        <CodeListRef CodeListOID="SMOKEHISTORY"/>
      </ItemDef>
      <ItemDef OID="SU_SMOKE.SUSCAT" Name="SUSCAT" DataType="text" Length="10">
        <Question>
          <TranslatedText xml:lang="en">Substance Used:</TranslatedText>
          <TranslatedText xml:lang="ja">Substance Used:</TranslatedText>
        </Question>
        <CodeListRef CodeListOID="SMOKECATEGORY"/>
        
        
        
        
      </ItemDef>
      <ItemDef OID="SU_SMOKE.SUDOSTXT" Name="SUDOSTXT (SUDOSTXT)" DataType="text" Length="200">
        <Question>
          <TranslatedText xml:lang="en">Amount of Substance Used:</TranslatedText>
          <TranslatedText xml:lang="ja">Amount of Substance Used:</TranslatedText>
        </Question>
      </ItemDef>
      <ItemDef OID="SU_SMOKE.SUDOSFRQ" Name="SUDOSFRQ (SUDOSFRQ)" DataType="text" Length="10">
        <Question>
          <TranslatedText xml:lang="en">Frequency:</TranslatedText>
          <TranslatedText xml:lang="ja">Frequency:</TranslatedText>
        </Question>
        <CodeListRef CodeListOID="SMOKEFREQUENCY"/>
      </ItemDef>
      <ItemDef OID="SU_SMOKE.SUSTDTC" Name="SUSTDTC" DataType="date">
        <Question>
          <TranslatedText xml:lang="en">Start Date of habitual use:</TranslatedText>
          <TranslatedText xml:lang="ja">Start Date of habitual use:</TranslatedText>
        </Question>
      </ItemDef>
      <ItemDef OID="SU_SMOKE.SUONGYN" Name="SUONGYN" DataType="text" Length="1">
        <Question>
          <TranslatedText xml:lang="en">Continuing at the end of the trial?</TranslatedText>
          <TranslatedText xml:lang="ja">Continuing at the end of the trial?</TranslatedText>
        </Question>
        <CodeListRef CodeListOID="YESNO"/>
      </ItemDef>
      <ItemDef OID="SU_SMOKE.SUENDTC" Name="SUENDTC" DataType="date">
        <Question>
          <TranslatedText xml:lang="en">Stop date of habitual use:</TranslatedText>
          <TranslatedText xml:lang="ja">Stop date of habitual use:</TranslatedText>
        </Question>
      </ItemDef>
      <ItemDef OID="SU_ALCOHOL.SUSTAT" Name="SUSTAT (SUSTAT)" DataType="text" Length="1">
        <Question>
          <TranslatedText xml:lang="en">Was the Alcohol Consumption Questionnaire completed?</TranslatedText>
          <TranslatedText xml:lang="ja">Was the Alcohol Consumption Questionnaire completed?</TranslatedText>
        </Question>
        <CodeListRef CodeListOID="YESNO"/>
      </ItemDef>
      <ItemDef OID="SU_ALCOHOL.SUREASND" Name="SUREASND (SUREASND)" DataType="text" Length="200">
        <Question>
          <TranslatedText xml:lang="en">Please explain why the Alcohol Consumption Questionnaire was not completed:</TranslatedText>
          <TranslatedText xml:lang="ja">Please explain why the Alcohol Consumption Questionnaire was not completed:</TranslatedText>
        </Question>
      </ItemDef>
      <ItemDef OID="SU_ALCOHOL.SUDOSTXT" Name="SUDOSTXT (SUDOSTXT)" DataType="text" Length="200">
        <Question>
          <TranslatedText xml:lang="en">Amount of Alcohol Consumed:</TranslatedText>
          <TranslatedText xml:lang="ja">Amount of Alcohol Consumed:</TranslatedText>
        </Question>
      </ItemDef>
      <ItemDef OID="SU_ALCOHOL.SUDOSFRQ" Name="SUDOSFRQ (SUDOSFRQ)" DataType="text" Length="10">
        <Question>
          <TranslatedText xml:lang="en">Frequency:</TranslatedText>
          <TranslatedText xml:lang="ja">Frequency:</TranslatedText>
        </Question>
        <CodeListRef CodeListOID="SMOKEFREQUENCY"/>
      </ItemDef>
      <ItemDef OID="EN.SUBJINIT" Name="SUBJINIT" DataType="text" Length="3">
        <Question>
          <TranslatedText xml:lang="en">Subject Initials:</TranslatedText>
          <TranslatedText xml:lang="ja">Subject Initials:</TranslatedText>
        </Question>
      </ItemDef>
      <ItemDef OID="EN.SUBJID" Name="SUBJID" DataType="text" Length="7">
        <Question>
          <TranslatedText xml:lang="en">Subject Number:</TranslatedText>
          <TranslatedText xml:lang="ja">Subject Number:</TranslatedText>
        </Question>
      </ItemDef>
      <ItemDef OID="EN.USUBJID" Name="USUBJID" DataType="text" Length="11">
        <Question>
          <TranslatedText xml:lang="en">Subject ID:</TranslatedText>
          <TranslatedText xml:lang="ja">Subject ID:</TranslatedText>
        </Question>
        
      </ItemDef>
      <ItemDef OID="DS_EOS.DSSTAT" Name="DSSTAT" DataType="text" Length="1">
        <Question>
          <TranslatedText xml:lang="en">Did subject complete the entire course of the study?</TranslatedText>
          <TranslatedText xml:lang="ja">Did subject complete the entire course of the study?</TranslatedText>
        </Question>
        <CodeListRef CodeListOID="YESNO"/>
      </ItemDef>
      <ItemDef OID="DS_EOS.DSREAS" Name="DSREAS" DataType="text" Length="50">
        <Question>
          <TranslatedText xml:lang="en">Primary reason for premature termination:</TranslatedText>
          <TranslatedText xml:lang="ja">Primary reason for premature termination:</TranslatedText>
        </Question>
        <CodeListRef CodeListOID="REASONFORTERMINATION"/>
      </ItemDef>
      <ItemDef OID="DS_EOS.DSSTDT" Name="DSSTDT (DSSTDT)" DataType="date">
        <Question>
          <TranslatedText xml:lang="en">Date of Last Visit:</TranslatedText>
          <TranslatedText xml:lang="ja">Date of Last Visit:</TranslatedText>
        </Question>
      </ItemDef>
      <ItemDef OID="DS_EOS.DSSTDTC" Name="DSSTDTC" DataType="time">
        <Question>
          <TranslatedText xml:lang="en">Time of Last Visit:</TranslatedText>
          <TranslatedText xml:lang="ja">Time of Last Visit:</TranslatedText>
        </Question>
      </ItemDef>
      <ItemDef OID="DS_EOS.DSRAND" Name="DSRAND" DataType="text" Length="1">
        <Question>
          <TranslatedText xml:lang="en">Was the randomization code broken at the site?</TranslatedText>
          <TranslatedText xml:lang="ja">Was the randomization code broken at the site?</TranslatedText>
        </Question>
        <CodeListRef CodeListOID="YESNO"/>
      </ItemDef>
      <ItemDef OID="DS_EOS.DSRANDDT" Name="DSRANDDT" DataType="date">
        <Question>
          <TranslatedText xml:lang="en">Date randomization code was broken:</TranslatedText>
          <TranslatedText xml:lang="ja">Date randomization code was broken:</TranslatedText>
        </Question>
      </ItemDef>
      <ItemDef OID="RAND.DSSTDT" Name="DSSTDT (DSSTDT)" DataType="date">
        <Question>
          <TranslatedText xml:lang="en">Date of Randomization:</TranslatedText>
          <TranslatedText xml:lang="ja">Date of Randomization:</TranslatedText>
        </Question>
      </ItemDef>
      <ItemDef OID="RAND.ARMCD" Name="ARMCD" DataType="integer" Length="1">
        <Question>
          <TranslatedText xml:lang="en">Treatment Arm:</TranslatedText>
          <TranslatedText xml:lang="ja">Treatment Arm:</TranslatedText>
        </Question>
        <CodeListRef CodeListOID="TREATMENTARM"/>
      </ItemDef>
      <ItemDef OID="DS_DEATH.DSSTDT_DEATH" Name="DSSTDT:DEATH" DataType="date">
        <Question>
          <TranslatedText xml:lang="en">Date of Death:</TranslatedText>
          <TranslatedText xml:lang="ja">Date of Death:</TranslatedText>
        </Question>
      </ItemDef>
      <ItemDef OID="DS_DEATH.DSSTDTC_TIME" Name="DSSTDTC:TIME" DataType="time">
        <Question>
          <TranslatedText xml:lang="en">Time of Death:</TranslatedText>
          <TranslatedText xml:lang="ja">Time of Death:</TranslatedText>
        </Question>
      </ItemDef>
      <ItemDef OID="DS_DEATH.DSREASDTH" Name="DSREASDTH" DataType="text" Length="200">
        <Question>
          <TranslatedText xml:lang="en">Cause of Death:</TranslatedText>
          <TranslatedText xml:lang="ja">Cause of Death:</TranslatedText>
        </Question>
      </ItemDef>
      <ItemDef OID="PRO_ASSESS.CON_DATE" Name="Con_Date" DataType="date">
        <Question>
          <TranslatedText xml:lang="en">Date of PRO Assessment</TranslatedText>
          <TranslatedText xml:lang="ja">Date of PRO Assessment</TranslatedText>
        </Question>
      </ItemDef>
      <ItemDef OID="PRO_ASSESS.CON_COND" Name="Con_Cond" DataType="integer" Length="1">
        <Question>
          <TranslatedText xml:lang="en">Over the past week how bad was your condition?</TranslatedText>
          <TranslatedText xml:lang="ja">Over the past week how bad was your condition?</TranslatedText>
        </Question>
        <CodeListRef CodeListOID="DDESEVERITY"/>
      </ItemDef>
      <ItemDef OID="PRO_ASSESS.CON_BLOAT" Name="Con_Bloat" DataType="integer" Length="1">
        <Question>
          <TranslatedText xml:lang="en">Over the past week, upon waking in the morning, how bad was abdominal bloating</TranslatedText>
          <TranslatedText xml:lang="ja">Over the past week, upon waking in the morning, how bad was abdominal bloating</TranslatedText>
        </Question>
        <CodeListRef CodeListOID="DDESEVERITY"/>
      </ItemDef>
      <ItemDef OID="PRO_ASSESS.CON_DISCOMFORT" Name="Con_Discomfort" DataType="integer" Length="1">
        <Question>
          <TranslatedText xml:lang="en">Over the past week, upon waking in the morning, hw bad was abdominal discomfort (Pain)?</TranslatedText>
          <TranslatedText xml:lang="ja">Over the past week, upon waking in the morning, hw bad was abdominal discomfort (Pain)?</TranslatedText>
        </Question>
        <CodeListRef CodeListOID="DDESEVERITY"/>
      </ItemDef>
      <ItemDef OID="PRO_ASSESS.CON_EFFECT" Name="Con_Effect" DataType="integer" Length="1">
        <Question>
          <TranslatedText xml:lang="en">Over the past week, how well did the study medication help you?</TranslatedText>
          <TranslatedText xml:lang="ja">Over the past week, how well did the study medication help you?</TranslatedText>
        </Question>
        <CodeListRef CodeListOID="DDEEFFECTIVENESS"/>
      </ItemDef>
      <ItemDef OID="PRO_COMPARE.COMP_CON" Name="COMP_CON" DataType="integer" Length="1">
        <Question>
          <TranslatedText xml:lang="en">Compared to the start of the study, how much better or worse was your condition over the past week?</TranslatedText>
          <TranslatedText xml:lang="ja">Compared to the start of the study, how much better or worse was your condition over the past week?</TranslatedText>
        </Question>
        <CodeListRef CodeListOID="DDECOMPARISON"/>
      </ItemDef>
      <ItemDef OID="PRO_COMPARE.COMP_BLOAT" Name="COMP_BLOAT" DataType="integer" Length="1">
        <Question>
          <TranslatedText xml:lang="en">Compared to the start of the study, how much better or worse was abdominal bloating over the past week?</TranslatedText>
          <TranslatedText xml:lang="ja">Compared to the start of the study, how much better or worse was abdominal bloating over the past week?</TranslatedText>
        </Question>
        <CodeListRef CodeListOID="DDECOMPARISON"/>
      </ItemDef>
      <ItemDef OID="PRO_COMPARE.COMP_DISCOMFORT" Name="COMP_DISCOMFORT" DataType="integer" Length="1">
        <Question>
          <TranslatedText xml:lang="en">Compared to before you started the study, how much better or worse was abdominal discomfort (Pain)?</TranslatedText>
          <TranslatedText xml:lang="ja">Compared to before you started the study, how much better or worse was abdominal discomfort (Pain)?</TranslatedText>
        </Question>
        <CodeListRef CodeListOID="DDECOMPARISON"/>
      </ItemDef>
      <ItemDef OID="PRO_COMPARE.COMP_COMMENTS" Name="COMP_COMMENTS" DataType="text" Length="200">
        <Question>
          <TranslatedText xml:lang="en">Any additional comments?</TranslatedText>
          <TranslatedText xml:lang="ja">Any additional comments?</TranslatedText>
        </Question>
      </ItemDef>
      <ItemDef OID="REQUIRED.REQ_VITALS" Name="REQ_VITALS" DataType="integer" Length="1">
        <Question>
          <TranslatedText xml:lang="en">Vital Signs</TranslatedText>
          <TranslatedText xml:lang="ja">Vital Signs</TranslatedText>
        </Question>
        
        
        
        
      </ItemDef>
      <ItemDef OID="REQUIRED.REQ_PHYSEXAM" Name="REQ_PHYSEXAM" DataType="integer" Length="1">
        <Question>
          <TranslatedText xml:lang="en">Physical Exam</TranslatedText>
          <TranslatedText xml:lang="ja">Physical Exam</TranslatedText>
        </Question>
      </ItemDef>
      <ItemDef OID="REQUIRED.REQ_PREG" Name="REQ_PREG" DataType="integer" Length="1">
        <Question>
          <TranslatedText xml:lang="en">Pregnancy Test</TranslatedText>
          <TranslatedText xml:lang="ja">Pregnancy Test</TranslatedText>
        </Question>
      </ItemDef>
      <ItemDef OID="ADDCYCLE.ADD_CYCLE" Name="Add_Cycle" DataType="text" Length="1">
        <Question>
          <TranslatedText xml:lang="en">Will an additional cycle be needed</TranslatedText>
          <TranslatedText xml:lang="ja">Will an additional cycle be needed</TranslatedText>
        </Question>
        <CodeListRef CodeListOID="YESNO"/>
      </ItemDef>
      <ItemDef OID="INEX.INFCONSENTDT" Name="INFCONSENTDT" DataType="date">
        <Question>
          <TranslatedText xml:lang="en">Date of Informed Consent</TranslatedText>
          <TranslatedText xml:lang="ja">Date of Informed Consent</TranslatedText>
        </Question>
      </ItemDef>
      <ItemDef OID="INEX.IN01" Name="IN01" DataType="integer" Length="1">
        <Question>
          <TranslatedText xml:lang="en">Normal memory function documented by scoring at specific cutoffs on the Logical Memory II subscale (delayed Paragraph Recall) from the Wechsler Memory Scaled - Revised</TranslatedText>
          <TranslatedText xml:lang="ja">Normal memory function documented by scoring at specific cutoffs on the Logical Memory II subscale (delayed Paragraph Recall) from the Wechsler Memory Scaled - Revised</TranslatedText>
        </Question>
        
        
        
        
        
        
      </ItemDef>
      <ItemDef OID="INEX.APPRV_IN01" Name="APPRV_IN01" DataType="text" Length="1">
        <Question>
          <TranslatedText xml:lang="en">Sponsor Approved</TranslatedText>
          <TranslatedText xml:lang="ja">Sponsor Approved</TranslatedText>
        </Question>
        <CodeListRef CodeListOID="YESNO"/>
      </ItemDef>
      <ItemDef OID="INEX.APPDATE_IN01" Name="APPDATE_IN01" DataType="date">
        <Question>
          <TranslatedText xml:lang="en">Approve Date</TranslatedText>
          <TranslatedText xml:lang="ja">Approve Date</TranslatedText>
        </Question>
      </ItemDef>
      <ItemDef OID="INEX.IN02" Name="IN02" DataType="integer" Length="1">
        <Question>
          <TranslatedText xml:lang="en">Mini-Mental State Exam score between 24 and 30 (inclusive) (Exceptions may be made for subjects with less than 8 years of education at the discretion of the project director).</TranslatedText>
          <TranslatedText xml:lang="ja">Mini-Mental State Exam score between 24 and 30 (inclusive) (Exceptions may be made for subjects with less than 8 years of education at the discretion of the project director).</TranslatedText>
        </Question>
      </ItemDef>
      <ItemDef OID="INEX.APPRV_IN02" Name="APPRV_IN02" DataType="text" Length="1">
        <Question>
          <TranslatedText xml:lang="en">Sponsor Approved</TranslatedText>
          <TranslatedText xml:lang="ja">Sponsor Approved</TranslatedText>
        </Question>
        <CodeListRef CodeListOID="YESNO"/>
      </ItemDef>
      <ItemDef OID="INEX.APPDATE_IN02" Name="APPDATE_IN02" DataType="date">
        <Question>
          <TranslatedText xml:lang="en">Approval Date</TranslatedText>
          <TranslatedText xml:lang="ja">Approval Date</TranslatedText>
        </Question>
      </ItemDef>
      <ItemDef OID="INEX.IN03" Name="IN03" DataType="integer" Length="1">
        <Question>
          <TranslatedText xml:lang="en">Cognitively normal, based on an absence of significant impairment in cognitive functions or activities of daily living.</TranslatedText>
          <TranslatedText xml:lang="ja">Cognitively normal, based on an absence of significant impairment in cognitive functions or activities of daily living.</TranslatedText>
        </Question>
      </ItemDef>
      <ItemDef OID="INEX.APPRV_IN03" Name="APPRV_IN03" DataType="text" Length="1">
        <Question>
          <TranslatedText xml:lang="en">Sponsor Approved</TranslatedText>
          <TranslatedText xml:lang="ja">Sponsor Approved</TranslatedText>
        </Question>
        <CodeListRef CodeListOID="YESNO"/>
      </ItemDef>
      <ItemDef OID="INEX.APPDATE_IN03" Name="APPDATE_IN03" DataType="date">
        <Question>
          <TranslatedText xml:lang="en">Approval Date</TranslatedText>
          <TranslatedText xml:lang="ja">Approval Date</TranslatedText>
        </Question>
      </ItemDef>
      <ItemDef OID="INEX.EX01" Name="EX01" DataType="integer" Length="1">
        <Question>
          <TranslatedText xml:lang="en">Hamilton Depression rating scale score of less than or equal to 12 on the 17-item scale. (With later discussion, inclusion of subjects with depression, as long as there's a reasonable chance they can come for follow-up visits and complete testing, is encouraged)</TranslatedText>
          <TranslatedText xml:lang="ja">Hamilton Depression rating scale score of less than or equal to 12 on the 17-item scale. (With later discussion, inclusion of subjects with depression, as long as there's a reasonable chance they can come for follow-up visits and complete testing, is encouraged)</TranslatedText>
        </Question>
        
        
        
        
      </ItemDef>
      <ItemDef OID="INEX.APPRV_EX01" Name="APPRV_EX01" DataType="text" Length="1">
        <Question>
          <TranslatedText xml:lang="en">Sponsor Approved</TranslatedText>
          <TranslatedText xml:lang="ja">Sponsor Approved</TranslatedText>
        </Question>
        <CodeListRef CodeListOID="YESNO"/>
      </ItemDef>
      <ItemDef OID="INEX.APPDATE_EX01" Name="APPDATE_EX01" DataType="date">
        <Question>
          <TranslatedText xml:lang="en">Approval Date</TranslatedText>
          <TranslatedText xml:lang="ja">Approval Date</TranslatedText>
        </Question>
      </ItemDef>
      <ItemDef OID="INEX.EX02" Name="EX02" DataType="integer" Length="1">
        <Question>
          <TranslatedText xml:lang="en">Informant is available who has frequent contact with the subject (e.g. an average of 10 hours per week or more),  and accompany the subject to all clinic visits for the duration of the protocol.</TranslatedText>
          <TranslatedText xml:lang="ja">Informant is available who has frequent contact with the subject (e.g. an average of 10 hours per week or more),  and accompany the subject to all clinic visits for the duration of the protocol.</TranslatedText>
        </Question>
      </ItemDef>
      <ItemDef OID="INEX.APPRV_EX02" Name="APPRV_EX02" DataType="text" Length="1">
        <Question>
          <TranslatedText xml:lang="en">Sponsor Approved</TranslatedText>
          <TranslatedText xml:lang="ja">Sponsor Approved</TranslatedText>
        </Question>
        <CodeListRef CodeListOID="YESNO"/>
      </ItemDef>
      <ItemDef OID="INEX.APPDATE_EX02" Name="APPDATE_EX02" DataType="date">
        <Question>
          <TranslatedText xml:lang="en">Approval Date</TranslatedText>
          <TranslatedText xml:lang="ja">Approval Date</TranslatedText>
        </Question>
      </ItemDef>
      <ItemDef OID="INEX.EX03" Name="EX03" DataType="integer" Length="1">
        <Question>
          <TranslatedText xml:lang="en">Willing to undergo neuroimaging (MRI, PET) and provide DNA  for ApoE assessments and banking as well as plasma samples at protocol specified time points.</TranslatedText>
          <TranslatedText xml:lang="ja">Willing to undergo neuroimaging (MRI, PET) and provide DNA  for ApoE assessments and banking as well as plasma samples at protocol specified time points.</TranslatedText>
        </Question>
      </ItemDef>
      <ItemDef OID="INEX.APPRV_EX03" Name="APPRV_EX03" DataType="text" Length="1">
        <Question>
          <TranslatedText xml:lang="en">Sponsor Approved</TranslatedText>
          <TranslatedText xml:lang="ja">Sponsor Approved</TranslatedText>
        </Question>
        <CodeListRef CodeListOID="YESNO"/>
      </ItemDef>
      <ItemDef OID="INEX.APPDATE_EX03" Name="APPDATE_EX03" DataType="date">
        <Question>
          <TranslatedText xml:lang="en">Approval Date</TranslatedText>
          <TranslatedText xml:lang="ja">Approval Date</TranslatedText>
        </Question>
      </ItemDef>
      <ItemDef OID="FORM_PAIN_SI.IT_DATE" Name="IT_Date" DataType="date">
        <Question>
          <TranslatedText xml:lang="en">Date the entry was logged on the diary (local time)</TranslatedText>
          <TranslatedText xml:lang="ja">Date the entry was logged on the diary (local time)</TranslatedText>
        </Question>
        
        
      </ItemDef>
      <ItemDef OID="FORM_PAIN_SI.IT_TIME" Name="IT_Time" DataType="time">
        <Question>
          <TranslatedText xml:lang="en">Time the entry was logged on the diary (local time)</TranslatedText>
          <TranslatedText xml:lang="ja">Time the entry was logged on the diary (local time)</TranslatedText>
        </Question>
        
        
      </ItemDef>
      <ItemDef OID="FORM_PAIN_SI.IT_SEVERE" Name="IT_SEVERE" DataType="integer" Length="3">
        <Question>
          <TranslatedText xml:lang="en">How severe is your pain right now?</TranslatedText>
          <TranslatedText xml:lang="ja">How severe is your pain right now?</TranslatedText>
        </Question>
        
        
      </ItemDef>
      <ItemDef OID="FORM_PAIN_SI.IT_EXPECTED" Name="IT_EXPECTED" DataType="text" Length="3">
        <Question>
          <TranslatedText xml:lang="en">Was your pain flare unexpected or expected?</TranslatedText>
          <TranslatedText xml:lang="ja">Was your pain flare unexpected or expected?</TranslatedText>
        </Question>
        <CodeListRef CodeListOID="YESNO"/>
        
        
      </ItemDef>
      <ItemDef OID="FORM_PAIN_SI.IT_ACT_WORK" Name="IT_ACT_WORK" DataType="integer" Length="1">
        <Question>
          <TranslatedText xml:lang="en">Which activities triggered your pain flare?  (Work)</TranslatedText>
          <TranslatedText xml:lang="ja">Which activities triggered your pain flare?  (Work)</TranslatedText>
        </Question>
        
        
      </ItemDef>
      <ItemDef OID="FORM_PAIN_SI.IT_ACT_EXER" Name="IT_ACT_EXER" DataType="integer" Length="1">
        <Question>
          <TranslatedText xml:lang="en">Which activities triggered your pain flare? (Exercise)</TranslatedText>
          <TranslatedText xml:lang="ja">Which activities triggered your pain flare? (Exercise)</TranslatedText>
        </Question>
        
        
      </ItemDef>
      <ItemDef OID="FORM_PAIN_SI.IT_ACT_WALK" Name="IT_ACT_WALK" DataType="integer" Length="1">
        <Question>
          <TranslatedText xml:lang="en">Which activities triggered your pain flare? (Walking)</TranslatedText>
          <TranslatedText xml:lang="ja">Which activities triggered your pain flare? (Walking)</TranslatedText>
        </Question>
        
        
      </ItemDef>
      <ItemDef OID="FORM_PAIN_SI.IT_ACT_SIT" Name="IT_ACT_SIT" DataType="integer" Length="1">
        <Question>
          <TranslatedText xml:lang="en">Which activities triggered your pain flare? (Sitting)</TranslatedText>
          <TranslatedText xml:lang="ja">Which activities triggered your pain flare? (Sitting)</TranslatedText>
        </Question>
        
        
      </ItemDef>
      <ItemDef OID="FORM_PAIN_SI.IT_ACT_CLIMB" Name="IT_ACT_CLIMB" DataType="integer" Length="1">
        <Question>
          <TranslatedText xml:lang="en">Which activities triggered your pain flare? (Climbing steps)</TranslatedText>
          <TranslatedText xml:lang="ja">Which activities triggered your pain flare? (Climbing steps)</TranslatedText>
        </Question>
        
        
      </ItemDef>
      <ItemDef OID="FORM_PAIN_SI.IT_ACT_NONE" Name="IT_ACT_NONE" DataType="integer" Length="1">
        <Question>
          <TranslatedText xml:lang="en">Which activities triggered your pain flare? (None of these)</TranslatedText>
          <TranslatedText xml:lang="ja">Which activities triggered your pain flare? (None of these)</TranslatedText>
        </Question>
        
        
      </ItemDef>
      <ItemDef OID="FORM_PAIN_SI.IT_MOOD" Name="IT_MOOD" DataType="integer" Length="3">
        <Question>
          <TranslatedText xml:lang="en">How much is pain interfering with your mood?”</TranslatedText>
          <TranslatedText xml:lang="ja">How much is pain interfering with your mood?”</TranslatedText>
        </Question>
        
        
      </ItemDef>
      <ItemDef OID="FORM_PAIN_SI.IT_ENJOY" Name="IT_ENJOY" DataType="integer" Length="2">
        <Question>
          <TranslatedText xml:lang="en">How much is pain interfering with your enjoyment of life?</TranslatedText>
          <TranslatedText xml:lang="ja">How much is pain interfering with your enjoyment of life?</TranslatedText>
        </Question>
        
        
      </ItemDef>
      <ItemDef OID="FORM_PAIN_SI.IT_BODY" Name="IT_BODY" DataType="integer" Length="9">
        <Question>
          <TranslatedText xml:lang="en">Where on your body are you experiencing pain?</TranslatedText>
          <TranslatedText xml:lang="ja">Where on your body are you experiencing pain?</TranslatedText>
        </Question>
        
        
      </ItemDef>
      <ItemDef OID="FORM_PAIN_SI.IT_MEDS" Name="IT_MEDS" DataType="integer" Length="1">
        <Question>
          <TranslatedText xml:lang="en">How many rescue meds did you take for the pain flare?</TranslatedText>
          <TranslatedText xml:lang="ja">How many rescue meds did you take for the pain flare?</TranslatedText>
        </Question>
        
        
      </ItemDef>
      <ItemDef OID="FORM_PAIN_SI.IT_START" Name="IT_START" DataType="time">
        <Question>
          <TranslatedText xml:lang="en">What time did your pain flare start today?</TranslatedText>
          <TranslatedText xml:lang="ja">What time did your pain flare start today?</TranslatedText>
        </Question>
        
        
      </ItemDef>
      <ItemDef OID="FORM_PAIN_SI.IT_REC_ID" Name="IT_REC_ID" DataType="integer" Length="8">
        <Question>
          <TranslatedText xml:lang="en">Record ID</TranslatedText>
          <TranslatedText xml:lang="ja">Record ID</TranslatedText>
        </Question>
        
        
      </ItemDef>
      <ItemDef OID="FORM_PAIN_SI.IT_REVISION" Name="IT_Revision" DataType="integer" Length="6">
        <Question>
          <TranslatedText xml:lang="en">Revision</TranslatedText>
          <TranslatedText xml:lang="ja">Revision</TranslatedText>
        </Question>
        
        
      </ItemDef>
      <ItemDef OID="FORM_PAIN_SI.IT_STATEID" Name="IT_StateID" DataType="text" Length="15">
        <Question>
          <TranslatedText xml:lang="en">StateID</TranslatedText>
          <TranslatedText xml:lang="ja">StateID</TranslatedText>
        </Question>
        <CodeListRef CodeListOID="STATE"/>
        
        
      </ItemDef>
      <ItemDef OID="LOGPAD_SIGNINGUNITDEF_939.LOGPAD_ITEMDEF_216" Name="LOGPAD_ITEMDEF_216 (LOGPAD_ITEMDEF_216)" DataType="date">
        <Question>
          <TranslatedText xml:lang="en">Report Date</TranslatedText>
          <TranslatedText xml:lang="ja">Report Date</TranslatedText>
        </Question>
        
        
        
      </ItemDef>
      <ItemDef OID="LOGPAD_SIGNINGUNITDEF_939.LOGPAD_ITEMDEF_675" Name="LOGPAD_ITEMDEF_675" DataType="integer" Length="1">
        <Question>
          <TranslatedText xml:lang="en">Did you take any rescue medication today?</TranslatedText>
          <TranslatedText xml:lang="ja">Did you take any rescue medication today?</TranslatedText>
        </Question>
        <CodeListRef CodeListOID="YESNONUMERIC"/>
        
        
        
      </ItemDef>
      <ItemDef OID="LOGPAD_SIGNINGUNITDEF_939.LOGPAD_ITEMDEF_677" Name="LOGPAD_ITEMDEF_677" DataType="integer" Length="1">
        <Question>
          <TranslatedText xml:lang="en">How many tablets of rescue medication did you take?</TranslatedText>
          <TranslatedText xml:lang="ja">How many tablets of rescue medication did you take?</TranslatedText>
        </Question>
        
        
        
      </ItemDef>
      <ItemDef OID="LOGPAD_SIGNINGUNITDEF_939.LOGPAD_ITEMDEF_1021" Name="LOGPAD_ITEMDEF_1021" DataType="integer" Length="2">
        <Question>
          <TranslatedText xml:lang="en">How severe was your pain over the past 24 hours?</TranslatedText>
          <TranslatedText xml:lang="ja">How severe was your pain over the past 24 hours?</TranslatedText>
        </Question>
        <CodeListRef CodeListOID="PAIN_SEVERITY"/>
        
        
        
      </ItemDef>
      <ItemDef OID="LOGPAD_SIGNINGUNITDEF_939.LOGPAD_ITEMDEF_1029" Name="LOGPAD_ITEMDEF_1029" DataType="integer" Length="1">
        <Question>
          <TranslatedText xml:lang="en">In the past 24 hours, how often did your pain keep you from doing your usual activities?
</TranslatedText>
          <TranslatedText xml:lang="ja">In the past 24 hours, how often did your pain keep you from doing your usual activities?
</TranslatedText>
        </Question>
        <CodeListRef CodeListOID="PAIN_AFFECT_ACTIVITY"/>
        
        
        
      </ItemDef>
      <ItemDef OID="LOGPAD_SIGNINGUNITDEF_939.LOGPAD_ITEMDEF_1031" Name="LOGPAD_ITEMDEF_1031" DataType="time">
        <Question>
          <TranslatedText xml:lang="en">At what time did you take your study medication today?

</TranslatedText>
          <TranslatedText xml:lang="ja">At what time did you take your study medication today?

</TranslatedText>
        </Question>
        
        
        
      </ItemDef>
      <ItemDef OID="LOGPAD_SIGNINGUNITDEF_939.LOGPAD_ITEMDEF_1054" Name="LOGPAD_ITEMDEF_1054 (LOGPAD_ITEMDEF_1054)" DataType="integer" Length="1">
        <Question>
          <TranslatedText xml:lang="en">Caregiver Initials
</TranslatedText>
          <TranslatedText xml:lang="ja">Caregiver Initials
</TranslatedText>
        </Question>
        
        
        
      </ItemDef>
      <ItemDef OID="LOGPAD_SIGNINGUNITDEF_939.LOGPAD_ITEMDEF_1056" Name="LOGPAD_ITEMDEF_1056 (LOGPAD_ITEMDEF_1056)" DataType="integer" Length="1">
        <Question>
          <TranslatedText xml:lang="en">Subject completed Diary</TranslatedText>
          <TranslatedText xml:lang="ja">Subject completed Diary</TranslatedText>
        </Question>
        
        
        
      </ItemDef>
      <ItemDef OID="LOGPAD_SIGNINGUNITDEF_939.LOGPAD_ITEMDEF_214" Name="LOGPAD_ITEMDEF_214 (LOGPAD_ITEMDEF_214)" DataType="datetime">
        <Question>
          <TranslatedText xml:lang="en">Report Start Date and Time</TranslatedText>
          <TranslatedText xml:lang="ja">Report Start Date and Time</TranslatedText>
        </Question>
        
        
        
      </ItemDef>
      <ItemDef OID="LOGPAD_SIGNINGUNITDEF_939.LOGPAD_ITEMDEF_317" Name="LOGPAD_ITEMDEF_317 (LOGPAD_ITEMDEF_317)" DataType="integer" Length="1">
        <Question>
          <TranslatedText xml:lang="en">Comments present?</TranslatedText>
          <TranslatedText xml:lang="ja">Comments present?</TranslatedText>
        </Question>
        
        
        
      </ItemDef>
      <ItemDef OID="LOGPAD_SIGNINGUNITDEF_939.LOGPAD_ITEMDEF_230" Name="LOGPAD_ITEMDEF_230 (LOGPAD_ITEMDEF_230)" DataType="text" Length="8">
        <Question>
          <TranslatedText xml:lang="en">Site Number</TranslatedText>
          <TranslatedText xml:lang="ja">Site Number</TranslatedText>
        </Question>
        
        
        
      </ItemDef>
      <ItemDef OID="LOGPAD_SIGNINGUNITDEF_939.LOGPAD_ITEMDEF_234" Name="LOGPAD_ITEMDEF_234" DataType="text" Length="8">
        <Question>
          <TranslatedText xml:lang="en">Subject ID
</TranslatedText>
          <TranslatedText xml:lang="ja">Subject ID
</TranslatedText>
        </Question>
        
        
        
      </ItemDef>
      <ItemDef OID="LOGPAD_SIGNINGUNITDEF_939.LOGPAD_ITEMDEF_232" Name="LOGPAD_ITEMDEF_232 (LOGPAD_ITEMDEF_232)" DataType="text" Length="3">
        <Question>
          <TranslatedText xml:lang="en">Subject Initials</TranslatedText>
          <TranslatedText xml:lang="ja">Subject Initials</TranslatedText>
        </Question>
        
        
        
      </ItemDef>
      <ItemDef OID="LOGPAD_SIGNINGUNITDEF_939.LOGPAD_ITEMDEF_212" Name="LOGPAD_ITEMDEF_212 (LOGPAD_ITEMDEF_212)" DataType="integer" Length="3">
        <Question>
          <TranslatedText xml:lang="en">Percentage of battery remaining</TranslatedText>
          <TranslatedText xml:lang="ja">Percentage of battery remaining</TranslatedText>
        </Question>
        <MeasurementUnitRef MeasurementUnitOID="%"/>
        
        
        
      </ItemDef>
      <ItemDef OID="LOGPAD_SIGNINGUNITDEF_939.LOGPAD_ITEMDEF_224" Name="LOGPAD_ITEMDEF_224 (LOGPAD_ITEMDEF_224)" DataType="integer" Length="3">
        <Question>
          <TranslatedText xml:lang="en">Seconds of modem activity during previous transmission</TranslatedText>
          <TranslatedText xml:lang="ja">Seconds of modem activity during previous transmission</TranslatedText>
        </Question>
        
        
        
      </ItemDef>
      <ItemDef OID="LOGPAD_SIGNINGUNITDEF_939.LOGPAD_ITEMDEF_220" Name="LOGPAD_ITEMDEF_220 (LOGPAD_ITEMDEF_220)" DataType="integer" Length="4">
        <Question>
          <TranslatedText xml:lang="en">LogPad device identification</TranslatedText>
          <TranslatedText xml:lang="ja">LogPad device identification</TranslatedText>
        </Question>
        
        
        
      </ItemDef>
      <ItemDef OID="LOGPAD_SIGNINGUNITDEF_939.LOGPAD_ITEMDEF_222" Name="LOGPAD_ITEMDEF_222 (LOGPAD_ITEMDEF_222)" DataType="float" Length="5" SignificantDigits="2">
        <Question>
          <TranslatedText xml:lang="en">LogPad version number</TranslatedText>
          <TranslatedText xml:lang="ja">LogPad version number</TranslatedText>
        </Question>
        
        
        
      </ItemDef>
      <ItemDef OID="LOGPAD_SIGNINGUNITDEF_939.LOGPAD_ITEMDEF_530" Name="LOGPAD_ITEMDEF_530 (LOGPAD_ITEMDEF_530)" DataType="text" Length="23">
        <Question>
          <TranslatedText xml:lang="en">LogPad Start Time (in UTC)*   *The LogPad Start Time indicates when the device that sent this report was registered or last reset</TranslatedText>
          <TranslatedText xml:lang="ja">LogPad Start Time (in UTC)*   *The LogPad Start Time indicates when the device that sent this report was registered or last reset</TranslatedText>
        </Question>
        
        
        
      </ItemDef>
      <ItemDef OID="LOGPAD_SIGNINGUNITDEF_939.LOGPAD_ITEMDEF_300" Name="LOGPAD_ITEMDEF_300 (LOGPAD_ITEMDEF_300)" DataType="integer" Length="2">
        <Question>
          <TranslatedText xml:lang="en">Time Zone</TranslatedText>
          <TranslatedText xml:lang="ja">Time Zone</TranslatedText>
        </Question>
        <CodeListRef CodeListOID="TIMEZONELIST"/>
        
        
        
      </ItemDef>
      <ItemDef OID="DM.BRTHDTC" Name="BRTHDTC" DataType="date">
        <Question>
          <TranslatedText xml:lang="en">Date of Birth:</TranslatedText>
          <TranslatedText xml:lang="ja">Date of Birth:</TranslatedText>
        </Question>
      </ItemDef>
      <ItemDef OID="DM.AGE" Name="AGE" DataType="integer" Length="3">
        <Question>
          <TranslatedText xml:lang="en">Age:</TranslatedText>
          <TranslatedText xml:lang="ja">Age:</TranslatedText>
        </Question>
        <MeasurementUnitRef MeasurementUnitOID="years"/>
      </ItemDef>
      <ItemDef OID="DM.SEX" Name="SEX" DataType="text" Length="7">
        <Question>
          <TranslatedText xml:lang="en">Sex:</TranslatedText>
          <TranslatedText xml:lang="ja">Sex:</TranslatedText>
        </Question>
        <CodeListRef CodeListOID="GENDER"/>
      </ItemDef>
      <ItemDef OID="DM.CHILDBEAR" Name="CHILDBEAR" DataType="text" Length="1">
        <Question>
          <TranslatedText xml:lang="en">&lt;b&gt;Is the subject of childbearing potential?&lt;/b&gt;</TranslatedText>
          <TranslatedText xml:lang="ja">&lt;b&gt;Is the subject of childbearing potential?&lt;/b&gt;</TranslatedText>
        </Question>
        <CodeListRef CodeListOID="YESNO"/>
      </ItemDef>
      <ItemDef OID="DM.RACE" Name="RACE" DataType="integer" Length="2">
        <Question>
          <TranslatedText xml:lang="en">Ethnicity:</TranslatedText>
          <TranslatedText xml:lang="ja">Ethnicity:</TranslatedText>
        </Question>
        <CodeListRef CodeListOID="RACE"/>
        
        
      </ItemDef>
      <ItemDef OID="DM.COUNTRY" Name="COUNTRY" DataType="text" Length="20">
        <Question>
          <TranslatedText xml:lang="en">Country:</TranslatedText>
          <TranslatedText xml:lang="ja">Country:</TranslatedText>
        </Question>
        <CodeListRef CodeListOID="COUNTRIES"/>
      </ItemDef>
      <ItemDef OID="DM.DSSTDT" Name="DSSTDT (DSSTDT)" DataType="date">
        <Question>
          <TranslatedText xml:lang="en">Date of Informed Consent:</TranslatedText>
          <TranslatedText xml:lang="ja">Date of Informed Consent:</TranslatedText>
        </Question>
      </ItemDef>
      <ItemDef OID="CM.CMSTAT" Name="CMSTAT" DataType="text" Length="1">
        <Question>
          <TranslatedText xml:lang="en">Were Concomitant Medications Collected?</TranslatedText>
          <TranslatedText xml:lang="ja">Were Concomitant Medications Collected?</TranslatedText>
        </Question>
        <CodeListRef CodeListOID="YESNO"/>
      </ItemDef>
      <ItemDef OID="CM.HIDDEN_NOW" Name="HIDDEN_NOW" DataType="datetime">
        <Question>
          <TranslatedText xml:lang="en">Current Date and Time:</TranslatedText>
          <TranslatedText xml:lang="ja">Current Date and Time:</TranslatedText>
        </Question>
        
      </ItemDef>
      <ItemDef OID="CM.CMREASND" Name="CMREASND" DataType="text" Length="200">
        <Question>
          <TranslatedText xml:lang="en">Reason Concomitant Medications were not collected:</TranslatedText>
          <TranslatedText xml:lang="ja">Reason Concomitant Medications were not collected:</TranslatedText>
        </Question>
      </ItemDef>
      <ItemDef OID="CM.CMTRT" Name="CMTRT" DataType="text" Length="200">
        <Question>
          <TranslatedText xml:lang="en">Medication: &lt;i&gt;(Please use trade name)&lt;/i&gt;</TranslatedText>
          <TranslatedText xml:lang="ja">Medication: &lt;i&gt;(Please use trade name)&lt;/i&gt;</TranslatedText>
        </Question>
      </ItemDef>
      <ItemDef OID="CM.CMDOSTOT" Name="CMDOSTOT" DataType="text" Length="20">
        <Question>
          <TranslatedText xml:lang="en">Total Daily Dose:</TranslatedText>
          <TranslatedText xml:lang="ja">Total Daily Dose:</TranslatedText>
        </Question>
      </ItemDef>
      <ItemDef OID="CM.CMDOSU" Name="CMDOSU" DataType="text" Length="20">
        <Question>
          <TranslatedText xml:lang="en">Units: &lt;i&gt;(e.g., mg)&lt;/i&gt;</TranslatedText>
          <TranslatedText xml:lang="ja">Units: &lt;i&gt;(e.g., mg)&lt;/i&gt;</TranslatedText>
        </Question>
      </ItemDef>
      <ItemDef OID="CM.CMDOSFRM" Name="CMDOSFRM" DataType="integer" Length="3">
        <Question>
          <TranslatedText xml:lang="en">Dose Form: &lt;i&gt;(e.g., Tablet)&lt;/i&gt;</TranslatedText>
          <TranslatedText xml:lang="ja">Dose Form: &lt;i&gt;(e.g., Tablet)&lt;/i&gt;</TranslatedText>
        </Question>
        <CodeListRef CodeListOID="DOSE_FRM"/>
      </ItemDef>
      <ItemDef OID="CM.CMDOSFRQ" Name="CMDOSFRQ" DataType="text" Length="20">
        <Question>
          <TranslatedText xml:lang="en">Frequency:</TranslatedText>
          <TranslatedText xml:lang="ja">Frequency:</TranslatedText>
        </Question>
        <CodeListRef CodeListOID="FREQUENCY"/>
      </ItemDef>
      <ItemDef OID="CM.CMROUTE" Name="CMROUTE" DataType="text" Length="20">
        <Question>
          <TranslatedText xml:lang="en">Route:</TranslatedText>
          <TranslatedText xml:lang="ja">Route:</TranslatedText>
        </Question>
        <CodeListRef CodeListOID="ROUTE"/>
      </ItemDef>
      <ItemDef OID="CM.CMDOSRGM" Name="CMDOSRGM" DataType="text" Length="20">
        <Question>
          <TranslatedText xml:lang="en">Regimen:</TranslatedText>
          <TranslatedText xml:lang="ja">Regimen:</TranslatedText>
        </Question>
      </ItemDef>
      <ItemDef OID="CM.CMSTDTC" Name="CMSTDTC" DataType="date">
        <Question>
          <TranslatedText xml:lang="en">Date Started:</TranslatedText>
          <TranslatedText xml:lang="ja">Date Started:</TranslatedText>
        </Question>
      </ItemDef>
      <ItemDef OID="CM.CMONG" Name="CMONG" DataType="text" Length="1">
        <Question>
          <TranslatedText xml:lang="en">Continuing?</TranslatedText>
          <TranslatedText xml:lang="ja">Continuing?</TranslatedText>
        </Question>
        <CodeListRef CodeListOID="YESNO"/>
      </ItemDef>
      <ItemDef OID="CM.CMENDTC" Name="CMENDTC" DataType="date">
        <Question>
          <TranslatedText xml:lang="en">End Date:</TranslatedText>
          <TranslatedText xml:lang="ja">End Date:</TranslatedText>
        </Question>
      </ItemDef>
      <ItemDef OID="CM.CMDUR" Name="CMDUR" DataType="text" Length="20">
        <Question>
          <TranslatedText xml:lang="en">Duration:</TranslatedText>
          <TranslatedText xml:lang="ja">Duration:</TranslatedText>
        </Question>
      </ItemDef>
      <ItemDef OID="CM.CMINDC" Name="CMINDC" DataType="text" Length="200">
        <Question>
          <TranslatedText xml:lang="en">Indication:</TranslatedText>
          <TranslatedText xml:lang="ja">Indication:</TranslatedText>
        </Question>
      </ItemDef>
      <ItemDef OID="PRG.DATE_PREG" Name="DATE_PREG" DataType="date">
        <Question>
          <TranslatedText xml:lang="en">Pregnancy Test Date</TranslatedText>
          <TranslatedText xml:lang="ja">Pregnancy Test Date</TranslatedText>
        </Question>
      </ItemDef>
      <ItemDef OID="PRG.PREG_RESULT" Name="PREG_RESULT" DataType="integer" Length="1">
        <Question>
          <TranslatedText xml:lang="en">Pregnancy Test Result</TranslatedText>
          <TranslatedText xml:lang="ja">Pregnancy Test Result</TranslatedText>
        </Question>
        <CodeListRef CodeListOID="POSNEG"/>
      </ItemDef>
      <ItemDef OID="EG.EGSTAT" Name="EGSTAT" DataType="text" Length="3">
        <Question>
          <TranslatedText xml:lang="en">Was the ECG completed?</TranslatedText>
          <TranslatedText xml:lang="ja">Was the ECG completed?</TranslatedText>
        </Question>
        <CodeListRef CodeListOID="YESNO"/>
      </ItemDef>
      <ItemDef OID="EG.EGREASND" Name="EGREASND" DataType="text" Length="200">
        <Question>
          <TranslatedText xml:lang="en">Please explain why the ECG was not completed:</TranslatedText>
          <TranslatedText xml:lang="ja">Please explain why the ECG was not completed:</TranslatedText>
        </Question>
      </ItemDef>
      <ItemDef OID="EG.EDGDTC" Name="EDGDTC" DataType="date">
        <Question>
          <TranslatedText xml:lang="en">Date of ECG :</TranslatedText>
          <TranslatedText xml:lang="ja">Date of ECG :</TranslatedText>
        </Question>
      </ItemDef>
      <ItemDef OID="EG.EDGTM" Name="EDGTM" DataType="time">
        <Question>
          <TranslatedText xml:lang="en">Time of ECG (24 hour clock):</TranslatedText>
          <TranslatedText xml:lang="ja">Time of ECG (24 hour clock):</TranslatedText>
        </Question>
      </ItemDef>
      <ItemDef OID="EG.ECG_ATTACH" Name="ECG_ATTACH" DataType="text" Length="200">
        <Question>
          <TranslatedText xml:lang="en">If available, please attach ECG image.</TranslatedText>
          <TranslatedText xml:lang="ja">If available, please attach ECG image.</TranslatedText>
        </Question>
      </ItemDef>
      <ItemDef OID="EG.EGPOS" Name="EGPOS" DataType="text" Length="25">
        <Question>
          <TranslatedText xml:lang="en">Position of subject during ECG exam:</TranslatedText>
          <TranslatedText xml:lang="ja">Position of subject during ECG exam:</TranslatedText>
        </Question>
        <CodeListRef CodeListOID="ECGPOSITION"/>
      </ItemDef>
      <ItemDef OID="EG.EGMETHOD" Name="EGMETHOD" DataType="text" Length="50">
        <Question>
          <TranslatedText xml:lang="en">Method of ECG Test:</TranslatedText>
          <TranslatedText xml:lang="ja">Method of ECG Test:</TranslatedText>
        </Question>
        <CodeListRef CodeListOID="EGCMETHOD"/>
      </ItemDef>
      <ItemDef OID="EG.EGORRES_NUM" Name="EGORRES_NUM" DataType="integer" Length="3">
        <Question>
          <TranslatedText xml:lang="en">Heart Rate:</TranslatedText>
          <TranslatedText xml:lang="ja">Heart Rate:</TranslatedText>
        </Question>
        <MeasurementUnitRef MeasurementUnitOID="BPM"/>
      </ItemDef>
      <ItemDef OID="EG.EGORRES_3" Name="EGORRES_3" DataType="integer" Length="3">
        <Question>
          <TranslatedText xml:lang="en">PR:</TranslatedText>
          <TranslatedText xml:lang="ja">PR:</TranslatedText>
        </Question>
        <MeasurementUnitRef MeasurementUnitOID="msec"/>
        
        
        
        
      </ItemDef>
      <ItemDef OID="EG.EGORRES_QRS" Name="EGORRES_QRS" DataType="integer" Length="3">
        <Question>
          <TranslatedText xml:lang="en">QRS:</TranslatedText>
          <TranslatedText xml:lang="ja">QRS:</TranslatedText>
        </Question>
        <MeasurementUnitRef MeasurementUnitOID="msec"/>
      </ItemDef>
      <ItemDef OID="EG.EGORRES_QT" Name="EGORRES_QT" DataType="integer" Length="3">
        <Question>
          <TranslatedText xml:lang="en">QT:</TranslatedText>
          <TranslatedText xml:lang="ja">QT:</TranslatedText>
        </Question>
        <MeasurementUnitRef MeasurementUnitOID="msec"/>
      </ItemDef>
      <ItemDef OID="EG.EGORRES_RR" Name="EGORRES_RR" DataType="integer" Length="3">
        <Question>
          <TranslatedText xml:lang="en">RR:</TranslatedText>
          <TranslatedText xml:lang="ja">RR:</TranslatedText>
        </Question>
        <MeasurementUnitRef MeasurementUnitOID="msec"/>
      </ItemDef>
      <ItemDef OID="EG.EGORRES_QTC" Name="EGORRES_QTc" DataType="integer" Length="3">
        <Question>
          <TranslatedText xml:lang="en">QTc:</TranslatedText>
          <TranslatedText xml:lang="ja">QTc:</TranslatedText>
        </Question>
        <MeasurementUnitRef MeasurementUnitOID="msec"/>
      </ItemDef>
      <ItemDef OID="EG.EGORRES_AQRS" Name="EGORRES_AQRS" DataType="integer" Length="4">
        <Question>
          <TranslatedText xml:lang="en">Axis QRS:</TranslatedText>
          <TranslatedText xml:lang="ja">Axis QRS:</TranslatedText>
        </Question>
        <MeasurementUnitRef MeasurementUnitOID="msec"/>
      </ItemDef>
      <ItemDef OID="EG.ECG_RHYTHM" Name="ECG_rhythm" DataType="text" Length="25">
        <Question>
          <TranslatedText xml:lang="en">Rhythm:</TranslatedText>
          <TranslatedText xml:lang="ja">Rhythm:</TranslatedText>
        </Question>
        <CodeListRef CodeListOID="ECGRHTHYM"/>
      </ItemDef>
      <ItemDef OID="EG.EGORRES_NORMAB" Name="EGORRES_NORMAB" DataType="text" Length="25">
        <Question>
          <TranslatedText xml:lang="en">Conduction:</TranslatedText>
          <TranslatedText xml:lang="ja">Conduction:</TranslatedText>
        </Question>
        <CodeListRef CodeListOID="NORMALABNORMAL"/>
      </ItemDef>
      <ItemDef OID="EG.EGORRES_NORMAB1" Name="EGORRES_NORMAB1" DataType="text" Length="25">
        <Question>
          <TranslatedText xml:lang="en">Atrioventricular:</TranslatedText>
          <TranslatedText xml:lang="ja">Atrioventricular:</TranslatedText>
        </Question>
        <CodeListRef CodeListOID="NORMALABNORMAL"/>
        
        
        
        
      </ItemDef>
      <ItemDef OID="EG.EGORRES_NORMAB2" Name="EGORRES_NORMAB2" DataType="text" Length="25">
        <Question>
          <TranslatedText xml:lang="en">Ventricular:</TranslatedText>
          <TranslatedText xml:lang="ja">Ventricular:</TranslatedText>
        </Question>
        <CodeListRef CodeListOID="NORMALABNORMAL"/>
      </ItemDef>
      <ItemDef OID="EG.EGORRES_ABSPRES" Name="EGORRES_ABSPRES" DataType="text" Length="25">
        <Question>
          <TranslatedText xml:lang="en">Extrasystole:</TranslatedText>
          <TranslatedText xml:lang="ja">Extrasystole:</TranslatedText>
        </Question>
        <CodeListRef CodeListOID="ABSENTPRESENT"/>
      </ItemDef>
      <ItemDef OID="EG.EGORRES_EXTRA" Name="EGORRES_EXTRA" DataType="text" Length="25">
        <Question>
          <TranslatedText xml:lang="en">If PRESENT, classify as follows:</TranslatedText>
          <TranslatedText xml:lang="ja">If PRESENT, classify as follows:</TranslatedText>
        </Question>
        <CodeListRef CodeListOID="ECGEXTRA"/>
      </ItemDef>
      <ItemDef OID="EG.EGORRES_CHAM" Name="EGORRES_CHAM" DataType="text" Length="25">
        <Question>
          <TranslatedText xml:lang="en">Chamber hypertrophy:</TranslatedText>
          <TranslatedText xml:lang="ja">Chamber hypertrophy:</TranslatedText>
        </Question>
        <CodeListRef CodeListOID="ECGCHAMBER"/>
      </ItemDef>
      <ItemDef OID="EG.EGORRES_NORMAB3" Name="EGORRES_NORMAB3" DataType="text" Length="25">
        <Question>
          <TranslatedText xml:lang="en">ST-T segment:</TranslatedText>
          <TranslatedText xml:lang="ja">ST-T segment:</TranslatedText>
        </Question>
        <CodeListRef CodeListOID="NORMALABNORMAL"/>
      </ItemDef>
      <ItemDef OID="EG.EGORRES_NORMAB4" Name="EGORRES_NORMAB4" DataType="text" Length="25">
        <Question>
          <TranslatedText xml:lang="en">Overall Interpretation:</TranslatedText>
          <TranslatedText xml:lang="ja">Overall Interpretation:</TranslatedText>
        </Question>
        <CodeListRef CodeListOID="NORMALABNORMAL"/>
      </ItemDef>
      <ItemDef OID="EG.EDEVAL" Name="EDEVAL" DataType="text" Length="50">
        <Question>
          <TranslatedText xml:lang="en">Evaluator</TranslatedText>
          <TranslatedText xml:lang="ja">Evaluator</TranslatedText>
        </Question>
      </ItemDef>
      <ItemDef OID="EG.EGXFN" Name="EGXFN" DataType="text" Length="200">
        <Question>
          <TranslatedText xml:lang="en">ECG External File Name</TranslatedText>
          <TranslatedText xml:lang="ja">ECG External File Name</TranslatedText>
        </Question>
      </ItemDef>
      <ItemDef OID="EG.EGNAM" Name="EGNAM" DataType="text" Length="200">
        <Question>
          <TranslatedText xml:lang="en">Vendor name:</TranslatedText>
          <TranslatedText xml:lang="ja">Vendor name:</TranslatedText>
        </Question>
      </ItemDef>
      <ItemDef OID="EG.EGLOINC" Name="EGLOINC" DataType="text" Length="200">
        <Question>
          <TranslatedText xml:lang="en">LOINC Code:</TranslatedText>
          <TranslatedText xml:lang="ja">LOINC Code:</TranslatedText>
        </Question>
      </ItemDef>
      <ItemDef OID="LOGPAD_SIGNINGUNITDEF_903.LOGPAD_ITEMDEF_216" Name="LOGPAD_ITEMDEF_216 (LOGPAD_ITEMDEF_216)" DataType="date">
        <Question>
          <TranslatedText xml:lang="en">Report Date</TranslatedText>
          <TranslatedText xml:lang="ja">Report Date</TranslatedText>
        </Question>
        
      </ItemDef>
      <ItemDef OID="LOGPAD_SIGNINGUNITDEF_903.LOGPAD_ITEMDEF_766" Name="LOGPAD_ITEMDEF_766" DataType="datetime">
        <Question>
          <TranslatedText xml:lang="en">What time did the event occur?</TranslatedText>
          <TranslatedText xml:lang="ja">What time did the event occur?</TranslatedText>
        </Question>
        
        
        
      </ItemDef>
      <ItemDef OID="LOGPAD_SIGNINGUNITDEF_903.LOGPAD_ITEMDEF_770" Name="LOGPAD_ITEMDEF_770" DataType="integer" Length="1">
        <Question>
          <TranslatedText xml:lang="en">Please select the type of event that you have just had</TranslatedText>
          <TranslatedText xml:lang="ja">Please select the type of event that you have just had</TranslatedText>
        </Question>
        <CodeListRef CodeListOID="PHT_768"/>
        
        
        
      </ItemDef>
      <ItemDef OID="LOGPAD_SIGNINGUNITDEF_903.LOGPAD_ITEMDEF_772" Name="LOGPAD_ITEMDEF_772" DataType="integer" Length="3">
        <Question>
          <TranslatedText xml:lang="en">Please record the overall severity of urgency/ pressure to urinate.</TranslatedText>
          <TranslatedText xml:lang="ja">Please record the overall severity of urgency/ pressure to urinate.</TranslatedText>
        </Question>
        
        
        
      </ItemDef>
      <ItemDef OID="LOGPAD_SIGNINGUNITDEF_903.LOGPAD_ITEMDEF_774" Name="LOGPAD_ITEMDEF_774" DataType="integer" Length="1">
        <Question>
          <TranslatedText xml:lang="en">Did this event occur during your nighttime sleep?</TranslatedText>
          <TranslatedText xml:lang="ja">Did this event occur during your nighttime sleep?</TranslatedText>
        </Question>
        <CodeListRef CodeListOID="PHT_210"/>
        
        
        
      </ItemDef>
      <ItemDef OID="LOGPAD_SIGNINGUNITDEF_903.LOGPAD_ITEMDEF_776" Name="LOGPAD_ITEMDEF_776" DataType="integer" Length="2">
        <Question>
          <TranslatedText xml:lang="en">Did this event wake you up from your nighttime sleep?</TranslatedText>
          <TranslatedText xml:lang="ja">Did this event wake you up from your nighttime sleep?</TranslatedText>
        </Question>
        <CodeListRef CodeListOID="PHT_210"/>
        
        
        
      </ItemDef>
      <ItemDef OID="LOGPAD_SIGNINGUNITDEF_903.LOGPAD_ITEMDEF_794" Name="LOGPAD_ITEMDEF_794" DataType="integer" Length="1">
        <Question>
          <TranslatedText xml:lang="en">Please confirm that you have entered your answers as accurately as you could</TranslatedText>
          <TranslatedText xml:lang="ja">Please confirm that you have entered your answers as accurately as you could</TranslatedText>
        </Question>
        
        
        
      </ItemDef>
      <ItemDef OID="LOGPAD_SIGNINGUNITDEF_903.LOGPAD_ITEMDEF_214" Name="LOGPAD_ITEMDEF_214 (LOGPAD_ITEMDEF_214)" DataType="datetime">
        <Question>
          <TranslatedText xml:lang="en">Report Start Date and Time</TranslatedText>
          <TranslatedText xml:lang="ja">Report Start Date and Time</TranslatedText>
        </Question>
        
      </ItemDef>
      <ItemDef OID="LOGPAD_SIGNINGUNITDEF_903.LOGPAD_ITEMDEF_317" Name="LOGPAD_ITEMDEF_317 (LOGPAD_ITEMDEF_317)" DataType="integer" Length="1">
        <Question>
          <TranslatedText xml:lang="en">Has Comments</TranslatedText>
          <TranslatedText xml:lang="ja">Has Comments</TranslatedText>
        </Question>
        
      </ItemDef>
      <ItemDef OID="LOGPAD_SIGNINGUNITDEF_903.LOGPAD_ITEMDEF_230" Name="LOGPAD_ITEMDEF_230 (LOGPAD_ITEMDEF_230)" DataType="text" Length="8">
        <Question>
          <TranslatedText xml:lang="en">Site Number</TranslatedText>
          <TranslatedText xml:lang="ja">Site Number</TranslatedText>
        </Question>
        
        
        
      </ItemDef>
      <ItemDef OID="LOGPAD_SIGNINGUNITDEF_903.LOGPAD_ITEMDEF_232" Name="LOGPAD_ITEMDEF_232 (LOGPAD_ITEMDEF_232)" DataType="text" Length="3">
        <Question>
          <TranslatedText xml:lang="en">Subject Initials</TranslatedText>
          <TranslatedText xml:lang="ja">Subject Initials</TranslatedText>
        </Question>
        
        
        
      </ItemDef>
      <ItemDef OID="LOGPAD_SIGNINGUNITDEF_903.LOGPAD_ITEMDEF_212" Name="LOGPAD_ITEMDEF_212 (LOGPAD_ITEMDEF_212)" DataType="integer" Length="3">
        <Question>
          <TranslatedText xml:lang="en">Percentage of battery remaining</TranslatedText>
          <TranslatedText xml:lang="ja">Percentage of battery remaining</TranslatedText>
        </Question>
        
        
        
      </ItemDef>
      <ItemDef OID="LOGPAD_SIGNINGUNITDEF_903.LOGPAD_ITEMDEF_224" Name="LOGPAD_ITEMDEF_224 (LOGPAD_ITEMDEF_224)" DataType="integer" Length="3">
        <Question>
          <TranslatedText xml:lang="en">Seconds of modem activity during previous transmission</TranslatedText>
          <TranslatedText xml:lang="ja">Seconds of modem activity during previous transmission</TranslatedText>
        </Question>
        
        
        
      </ItemDef>
      <ItemDef OID="LOGPAD_SIGNINGUNITDEF_903.LOGPAD_ITEMDEF_220" Name="LOGPAD_ITEMDEF_220 (LOGPAD_ITEMDEF_220)" DataType="integer" Length="4">
        <Question>
          <TranslatedText xml:lang="en">LogPad device identification</TranslatedText>
          <TranslatedText xml:lang="ja">LogPad device identification</TranslatedText>
        </Question>
        
        
        
      </ItemDef>
      <ItemDef OID="LOGPAD_SIGNINGUNITDEF_903.LOGPAD_ITEMDEF_222" Name="LOGPAD_ITEMDEF_222 (LOGPAD_ITEMDEF_222)" DataType="float" Length="5" SignificantDigits="2">
        <Question>
          <TranslatedText xml:lang="en">LogPad version number</TranslatedText>
          <TranslatedText xml:lang="ja">LogPad version number</TranslatedText>
        </Question>
        
        
        
      </ItemDef>
      <ItemDef OID="LOGPAD_SIGNINGUNITDEF_903.LOGPAD_ITEMDEF_530" Name="LOGPAD_ITEMDEF_530 (LOGPAD_ITEMDEF_530)" DataType="text" Length="23">
        <Question>
          <TranslatedText xml:lang="en">LogPad Start Time (in UTC)</TranslatedText>
          <TranslatedText xml:lang="ja">LogPad Start Time (in UTC)</TranslatedText>
        </Question>
        
        
        
        
        
      </ItemDef>
      <ItemDef OID="LOGPAD_SIGNINGUNITDEF_903.LOGPAD_ITEMDEF_300" Name="LOGPAD_ITEMDEF_300 (LOGPAD_ITEMDEF_300)" DataType="integer" Length="2">
        <Question>
          <TranslatedText xml:lang="en">Time Zone</TranslatedText>
          <TranslatedText xml:lang="ja">Time Zone</TranslatedText>
        </Question>
        <CodeListRef CodeListOID="TIMEZONELIST"/>
        
        
        
      </ItemDef>
      <ItemDef OID="LOGPAD_SIGNINGUNITDEF_903.LOGPAD_ITEMDEF_1054" Name="LOGPAD_ITEMDEF_1054 (LOGPAD_ITEMDEF_1054)" DataType="integer" Length="1">
        <Question>
          <TranslatedText xml:lang="en">Caregiver Initials</TranslatedText>
          <TranslatedText xml:lang="ja">Caregiver Initials</TranslatedText>
        </Question>
        
        
        
      </ItemDef>
      <ItemDef OID="LOGPAD_SIGNINGUNITDEF_903.LOGPAD_ITEMDEF_1056" Name="LOGPAD_ITEMDEF_1056 (LOGPAD_ITEMDEF_1056)" DataType="integer" Length="1">
        <Question>
          <TranslatedText xml:lang="en">Subject completed Diary</TranslatedText>
          <TranslatedText xml:lang="ja">Subject completed Diary</TranslatedText>
        </Question>
        
        
        
      </ItemDef>
      <ItemDef OID="LOGPAD_SIGNINGUNITDEF_946.LOGPAD_ITEMDEF_216" Name="LOGPAD_ITEMDEF_216 (LOGPAD_ITEMDEF_216)" DataType="date">
        <Question>
          <TranslatedText xml:lang="en">Report Date</TranslatedText>
          <TranslatedText xml:lang="ja">Report Date</TranslatedText>
        </Question>
        
        
        
      </ItemDef>
      <ItemDef OID="LOGPAD_SIGNINGUNITDEF_946.LOGPAD_ITEMDEF_780" Name="LOGPAD_ITEMDEF_780" DataType="integer" Length="1">
        <Question>
          <TranslatedText xml:lang="en">In general, would you say your health is:</TranslatedText>
          <TranslatedText xml:lang="ja">In general, would you say your health is:</TranslatedText>
        </Question>
        <CodeListRef CodeListOID="PHT_740"/>
        
        
        
      </ItemDef>
      <ItemDef OID="LOGPAD_SIGNINGUNITDEF_946.LOGPAD_ITEMDEF_784" Name="LOGPAD_ITEMDEF_784" DataType="integer" Length="1">
        <Question>
          <TranslatedText xml:lang="en">Does your health now limit you in VIGOROUS ACTIVITIES, such as running, lifting heavy objects,participating in strenuous sports</TranslatedText>
          <TranslatedText xml:lang="ja">Does your health now limit you in VIGOROUS ACTIVITIES, such as running, lifting heavy objects,participating in strenuous sports</TranslatedText>
        </Question>
        <CodeListRef CodeListOID="PHT_782"/>
        
        
        
      </ItemDef>
      <ItemDef OID="LOGPAD_SIGNINGUNITDEF_946.LOGPAD_ITEMDEF_786" Name="LOGPAD_ITEMDEF_786" DataType="integer" Length="1">
        <Question>
          <TranslatedText xml:lang="en">Does your health now limit you in MODERATE ACTIVITIES, such as moving a table, pushing a vacuum cleaner, bowling, or playing golf</TranslatedText>
          <TranslatedText xml:lang="ja">Does your health now limit you in MODERATE ACTIVITIES, such as moving a table, pushing a vacuum cleaner, bowling, or playing golf</TranslatedText>
        </Question>
        <CodeListRef CodeListOID="PHT_782"/>
        
        
        
      </ItemDef>
      <ItemDef OID="LOGPAD_SIGNINGUNITDEF_946.LOGPAD_ITEMDEF_796" Name="LOGPAD_ITEMDEF_796" DataType="integer" Length="1">
        <Question>
          <TranslatedText xml:lang="en">Please confirm that you have entered your answers as accurately as you could by selecting yes below</TranslatedText>
          <TranslatedText xml:lang="ja">Please confirm that you have entered your answers as accurately as you could by selecting yes below</TranslatedText>
        </Question>
        
        
        
      </ItemDef>
      <ItemDef OID="LOGPAD_SIGNINGUNITDEF_946.LOGPAD_ITEMDEF_214" Name="LOGPAD_ITEMDEF_214 (LOGPAD_ITEMDEF_214)" DataType="datetime">
        <Question>
          <TranslatedText xml:lang="en">Report Start Date and Time</TranslatedText>
          <TranslatedText xml:lang="ja">Report Start Date and Time</TranslatedText>
        </Question>
        
        
        
      </ItemDef>
      <ItemDef OID="LOGPAD_SIGNINGUNITDEF_946.LOGPAD_ITEMDEF_317" Name="LOGPAD_ITEMDEF_317 (LOGPAD_ITEMDEF_317)" DataType="integer" Length="1">
        <Question>
          <TranslatedText xml:lang="en">Comments are present in the audit trail when box is checked</TranslatedText>
          <TranslatedText xml:lang="ja">Comments are present in the audit trail when box is checked</TranslatedText>
        </Question>
        
        
        
      </ItemDef>
      <ItemDef OID="LOGPAD_SIGNINGUNITDEF_946.LOGPAD_ITEMDEF_230" Name="LOGPAD_ITEMDEF_230 (LOGPAD_ITEMDEF_230)" DataType="text" Length="8">
        <Question>
          <TranslatedText xml:lang="en">Site Number</TranslatedText>
          <TranslatedText xml:lang="ja">Site Number</TranslatedText>
        </Question>
        
        
        
      </ItemDef>
      <ItemDef OID="LOGPAD_SIGNINGUNITDEF_946.LOGPAD_ITEMDEF_232" Name="LOGPAD_ITEMDEF_232 (LOGPAD_ITEMDEF_232)" DataType="text" Length="3">
        <Question>
          <TranslatedText xml:lang="en">Subject Initials</TranslatedText>
          <TranslatedText xml:lang="ja">Subject Initials</TranslatedText>
        </Question>
        
        
        
      </ItemDef>
      <ItemDef OID="LOGPAD_SIGNINGUNITDEF_946.LOGPAD_ITEMDEF_212" Name="LOGPAD_ITEMDEF_212 (LOGPAD_ITEMDEF_212)" DataType="integer" Length="3">
        <Question>
          <TranslatedText xml:lang="en">Percentage of battery remaining</TranslatedText>
          <TranslatedText xml:lang="ja">Percentage of battery remaining</TranslatedText>
        </Question>
        
        
        
      </ItemDef>
      <ItemDef OID="LOGPAD_SIGNINGUNITDEF_946.LOGPAD_ITEMDEF_224" Name="LOGPAD_ITEMDEF_224 (LOGPAD_ITEMDEF_224)" DataType="integer" Length="3">
        <Question>
          <TranslatedText xml:lang="en">Seconds of modem activity during previous transmission</TranslatedText>
          <TranslatedText xml:lang="ja">Seconds of modem activity during previous transmission</TranslatedText>
        </Question>
        
        
        
      </ItemDef>
      <ItemDef OID="LOGPAD_SIGNINGUNITDEF_946.LOGPAD_ITEMDEF_220" Name="LOGPAD_ITEMDEF_220 (LOGPAD_ITEMDEF_220)" DataType="integer" Length="4">
        <Question>
          <TranslatedText xml:lang="en">LogPad device identification</TranslatedText>
          <TranslatedText xml:lang="ja">LogPad device identification</TranslatedText>
        </Question>
        
        
        
      </ItemDef>
      <ItemDef OID="LOGPAD_SIGNINGUNITDEF_946.LOGPAD_ITEMDEF_222" Name="LOGPAD_ITEMDEF_222 (LOGPAD_ITEMDEF_222)" DataType="float" Length="5" SignificantDigits="2">
        <Question>
          <TranslatedText xml:lang="en">LogPad version number</TranslatedText>
          <TranslatedText xml:lang="ja">LogPad version number</TranslatedText>
        </Question>
        
        
        
      </ItemDef>
      <ItemDef OID="LOGPAD_SIGNINGUNITDEF_946.LOGPAD_ITEMDEF_530" Name="LOGPAD_ITEMDEF_530 (LOGPAD_ITEMDEF_530)" DataType="text" Length="23">
        <Question>
          <TranslatedText xml:lang="en">LogPad Start Time (in UTC)</TranslatedText>
          <TranslatedText xml:lang="ja">LogPad Start Time (in UTC)</TranslatedText>
        </Question>
        
        
        
        
        
      </ItemDef>
      <ItemDef OID="LOGPAD_SIGNINGUNITDEF_946.LOGPAD_ITEMDEF_300" Name="LOGPAD_ITEMDEF_300 (LOGPAD_ITEMDEF_300)" DataType="integer" Length="2">
        <Question>
          <TranslatedText xml:lang="en">Time Zone</TranslatedText>
          <TranslatedText xml:lang="ja">Time Zone</TranslatedText>
        </Question>
        <CodeListRef CodeListOID="TIMEZONELIST"/>
        
        
        
      </ItemDef>
      <ItemDef OID="MH.MHSTAT" Name="MHSTAT" DataType="text" Length="1">
        <Question>
          <TranslatedText xml:lang="en">Was Medical History Collected?</TranslatedText>
          <TranslatedText xml:lang="ja">Was Medical History Collected?</TranslatedText>
        </Question>
        <CodeListRef CodeListOID="YESNO"/>
      </ItemDef>
      <ItemDef OID="MH.MHREASND" Name="MHREASND" DataType="text" Length="200">
        <Question>
          <TranslatedText xml:lang="en">Reason Medical History was not collected:</TranslatedText>
          <TranslatedText xml:lang="ja">Reason Medical History was not collected:</TranslatedText>
        </Question>
      </ItemDef>
      <ItemDef OID="MH.HIDDEN_NOW_MEDHIST" Name="HIDDEN_NOW_MEDHIST" DataType="datetime">
        
      </ItemDef>
      <ItemDef OID="MH.MHYN" Name="MHYN" DataType="text" Length="1">
        <Question>
          <TranslatedText xml:lang="en">Are there any medical history findings &lt;i&gt;(excluding study indication)&lt;/i&gt; existing prior to or on entry to the trial that are considered relevant to the study?</TranslatedText>
          <TranslatedText xml:lang="ja">Are there any medical history findings &lt;i&gt;(excluding study indication)&lt;/i&gt; existing prior to or on entry to the trial that are considered relevant to the study?</TranslatedText>
        </Question>
        <CodeListRef CodeListOID="YESNO"/>
      </ItemDef>
      <ItemDef OID="MH.MHBODSYS" Name="MHBODSYS" DataType="text" Length="200">
        <Question>
          <TranslatedText xml:lang="en">Body System or Organ Class:</TranslatedText>
          <TranslatedText xml:lang="ja">Body System or Organ Class:</TranslatedText>
        </Question>
        <CodeListRef CodeListOID="BODYSYSTEM"/>
      </ItemDef>
      <ItemDef OID="MH.MHTERM" Name="MHTERM" DataType="text" Length="200">
        <Question>
          <TranslatedText xml:lang="en">Medical History:</TranslatedText>
          <TranslatedText xml:lang="ja">Medical History:</TranslatedText>
        </Question>
        
        
      </ItemDef>
      <ItemDef OID="MH.MHSTDTC" Name="MHSTDTC" DataType="date">
        <Question>
          <TranslatedText xml:lang="en">Onset Date or Date of Diagnosis:</TranslatedText>
          <TranslatedText xml:lang="ja">Onset Date or Date of Diagnosis:</TranslatedText>
        </Question>
      </ItemDef>
      <ItemDef OID="MH.MHONGNY" Name="MHONGNY" DataType="text" Length="1">
        <Question>
          <TranslatedText xml:lang="en">Ongoing?</TranslatedText>
          <TranslatedText xml:lang="ja">Ongoing?</TranslatedText>
        </Question>
        <CodeListRef CodeListOID="YESNO"/>
      </ItemDef>
      <ItemDef OID="MH.MHENDTC" Name="MHENDTC" DataType="date">
        <Question>
          <TranslatedText xml:lang="en">Date Resolved:</TranslatedText>
          <TranslatedText xml:lang="ja">Date Resolved:</TranslatedText>
        </Question>
      </ItemDef>
      <ItemDef OID="TUMOR.TUMOR_DATE" Name="Tumor_Date" DataType="date">
        <Question>
          <TranslatedText xml:lang="en">Date of Assessment</TranslatedText>
          <TranslatedText xml:lang="ja">Date of Assessment</TranslatedText>
        </Question>
      </ItemDef>
      <ItemDef OID="TUMOR.TUMOR_VOLUME" Name="Tumor_Volume" DataType="integer" Length="3">
        <Question>
          <TranslatedText xml:lang="en">Tumor Volume</TranslatedText>
          <TranslatedText xml:lang="ja">Tumor Volume</TranslatedText>
        </Question>
        <MeasurementUnitRef MeasurementUnitOID="cm"/>
      </ItemDef>
      <ItemDef OID="TUMOR.TUMOR_DESC" Name="Tumor_Desc" DataType="text" Length="250">
        <Question>
          <TranslatedText xml:lang="en">Tumor Description</TranslatedText>
          <TranslatedText xml:lang="ja">Tumor Description</TranslatedText>
        </Question>
      </ItemDef>
      <ItemDef OID="TUMOR.TUMOR_XRAY" Name="Tumor_Xray" DataType="text" Length="200"/>
      <CodeList OID="ABSENTPRESENT" Name="ABSENTPRESENT" DataType="text">
        <CodeListItem CodedValue="Absent" OrderNumber="1">
          <Decode>
            <TranslatedText xml:lang="en">Absent</TranslatedText>
            <TranslatedText xml:lang="ja">Absent</TranslatedText>
          </Decode>
        </CodeListItem>
        <CodeListItem CodedValue="Present" OrderNumber="2">
          <Decode>
            <TranslatedText xml:lang="en">Present</TranslatedText>
            <TranslatedText xml:lang="ja">Present</TranslatedText>
          </Decode>
        </CodeListItem>
      </CodeList>
      <CodeList OID="AEACTIONTAKEN" Name="AEACTIONTAKEN" DataType="text">
        <CodeListItem CodedValue="DRUG WITHDRAWN" OrderNumber="1">
          <Decode>
            <TranslatedText xml:lang="en">Drug Withdrawn</TranslatedText>
            <TranslatedText xml:lang="ja">Drug Withdrawn</TranslatedText>
          </Decode>
        </CodeListItem>
        <CodeListItem CodedValue="DOSE REDUCED" OrderNumber="2">
          <Decode>
            <TranslatedText xml:lang="en">Dose reduced</TranslatedText>
            <TranslatedText xml:lang="ja">Dose reduced</TranslatedText>
          </Decode>
        </CodeListItem>
        <CodeListItem CodedValue="DOSE INCREASED" OrderNumber="3">
          <Decode>
            <TranslatedText xml:lang="en">Dose Increased</TranslatedText>
            <TranslatedText xml:lang="ja">Dose Increased</TranslatedText>
          </Decode>
        </CodeListItem>
        <CodeListItem CodedValue="DOSE NOT CHANGED" OrderNumber="4">
          <Decode>
            <TranslatedText xml:lang="en">Dose not Changed</TranslatedText>
            <TranslatedText xml:lang="ja">Dose not Changed</TranslatedText>
          </Decode>
        </CodeListItem>
        <CodeListItem CodedValue="UNKNOWN" OrderNumber="5">
          <Decode>
            <TranslatedText xml:lang="en">Unknown</TranslatedText>
            <TranslatedText xml:lang="ja">Unknown</TranslatedText>
          </Decode>
        </CodeListItem>
        <CodeListItem CodedValue="NOT APPLICABLE" OrderNumber="6">
          <Decode>
            <TranslatedText xml:lang="en">Not Applicable</TranslatedText>
            <TranslatedText xml:lang="ja">Not Applicable</TranslatedText>
          </Decode>
        </CodeListItem>
        <CodeListItem CodedValue="OTHER (SPECIFY)" OrderNumber="7">
          <Decode>
            <TranslatedText xml:lang="en">Other (specify)</TranslatedText>
            <TranslatedText xml:lang="ja">Other (specify)</TranslatedText>
          </Decode>
        </CodeListItem>
      </CodeList>
      <CodeList OID="AEFREQUENCY" Name="AEFREQUENCY" DataType="text">
        <CodeListItem CodedValue="SINGLE EPISODE" OrderNumber="1">
          <Decode>
            <TranslatedText xml:lang="en">Single Episode</TranslatedText>
            <TranslatedText xml:lang="ja">Single Episode</TranslatedText>
          </Decode>
        </CodeListItem>
        <CodeListItem CodedValue="INTERMITTENT" OrderNumber="2">
          <Decode>
            <TranslatedText xml:lang="en">Intermittent</TranslatedText>
            <TranslatedText xml:lang="ja">Intermittent</TranslatedText>
          </Decode>
        </CodeListItem>
        <CodeListItem CodedValue="CONTINUOUS" OrderNumber="3">
          <Decode>
            <TranslatedText xml:lang="en">Continuous</TranslatedText>
            <TranslatedText xml:lang="ja">Continuous</TranslatedText>
          </Decode>
        </CodeListItem>
      </CodeList>
      <CodeList OID="ALCOHOLFREQUENCY" Name="ALCOHOLFREQUENCY" DataType="text">
        <CodeListItem CodedValue="PER DAY" OrderNumber="1">
          <Decode>
            <TranslatedText xml:lang="en">Per Day</TranslatedText>
            <TranslatedText xml:lang="ja">Per Day</TranslatedText>
          </Decode>
        </CodeListItem>
        <CodeListItem CodedValue="PER WEEK" OrderNumber="2">
          <Decode>
            <TranslatedText xml:lang="en">Per Week</TranslatedText>
            <TranslatedText xml:lang="ja">Per Week</TranslatedText>
          </Decode>
        </CodeListItem>
        <CodeListItem CodedValue="PER MONTH" OrderNumber="3">
          <Decode>
            <TranslatedText xml:lang="en">Per Month</TranslatedText>
            <TranslatedText xml:lang="ja">Per Month</TranslatedText>
          </Decode>
        </CodeListItem>
        <CodeListItem CodedValue="PER YEAR" OrderNumber="4">
          <Decode>
            <TranslatedText xml:lang="en">Per Year</TranslatedText>
            <TranslatedText xml:lang="ja">Per Year</TranslatedText>
          </Decode>
        </CodeListItem>
      </CodeList>
      <CodeList OID="B02C95B4_A4F8_4E8A_8A64_2B735715C8C4" Name="B02C95B4_A4F8_4E8A_8A64_2B735715C8C4" DataType="integer">
        <CodeListItem CodedValue="0" OrderNumber="1">
          <Decode>
            <TranslatedText xml:lang="en">0</TranslatedText>
            <TranslatedText xml:lang="ja">0</TranslatedText>
          </Decode>
        </CodeListItem>
        <CodeListItem CodedValue="1" OrderNumber="2">
          <Decode>
            <TranslatedText xml:lang="en">+</TranslatedText>
            <TranslatedText xml:lang="ja">+</TranslatedText>
          </Decode>
        </CodeListItem>
        <CodeListItem CodedValue="2" OrderNumber="3">
          <Decode>
            <TranslatedText xml:lang="en">+ +</TranslatedText>
            <TranslatedText xml:lang="ja">+ +</TranslatedText>
          </Decode>
        </CodeListItem>
        <CodeListItem CodedValue="3" OrderNumber="4">
          <Decode>
            <TranslatedText xml:lang="en">+ + +</TranslatedText>
            <TranslatedText xml:lang="ja">+ + +</TranslatedText>
          </Decode>
        </CodeListItem>
      </CodeList>
      <CodeList OID="BODYSYSTEM" Name="BODYSYSTEM" DataType="text">
        <CodeListItem CodedValue="AUTOIMMUNE" OrderNumber="1">
          <Decode>
            <TranslatedText xml:lang="en">Autoimmunie</TranslatedText>
            <TranslatedText xml:lang="ja">Autoimmunie</TranslatedText>
          </Decode>
        </CodeListItem>
        <CodeListItem CodedValue="IMMUNOLOGICAL" OrderNumber="2">
          <Decode>
            <TranslatedText xml:lang="en">Immunological</TranslatedText>
            <TranslatedText xml:lang="ja">Immunological</TranslatedText>
          </Decode>
        </CodeListItem>
        <CodeListItem CodedValue="MUSCULOSKELETAL" OrderNumber="3">
          <Decode>
            <TranslatedText xml:lang="en">Musculoskeletal</TranslatedText>
            <TranslatedText xml:lang="ja">Musculoskeletal</TranslatedText>
          </Decode>
        </CodeListItem>
        <CodeListItem CodedValue="NEUROLOGICAL" OrderNumber="4">
          <Decode>
            <TranslatedText xml:lang="en">Neurological</TranslatedText>
            <TranslatedText xml:lang="ja">Neurological</TranslatedText>
          </Decode>
        </CodeListItem>
        <CodeListItem CodedValue="OPHTHALMOLOGICAL" OrderNumber="5">
          <Decode>
            <TranslatedText xml:lang="en">Ophthalmological</TranslatedText>
            <TranslatedText xml:lang="ja">Ophthalmological</TranslatedText>
          </Decode>
        </CodeListItem>
        <CodeListItem CodedValue="PSYCHOLOGICAL" OrderNumber="6">
          <Decode>
            <TranslatedText xml:lang="en">Psychological</TranslatedText>
            <TranslatedText xml:lang="ja">Psychological</TranslatedText>
          </Decode>
        </CodeListItem>
        <CodeListItem CodedValue="RESPIRATORY" OrderNumber="7">
          <Decode>
            <TranslatedText xml:lang="en">Respiratory</TranslatedText>
            <TranslatedText xml:lang="ja">Respiratory</TranslatedText>
          </Decode>
        </CodeListItem>
        <CodeListItem CodedValue="OTHER SPECIFY" OrderNumber="8">
          <Decode>
            <TranslatedText xml:lang="en">Other, Specify</TranslatedText>
            <TranslatedText xml:lang="ja">Other, Specify</TranslatedText>
          </Decode>
        </CodeListItem>
        <CodeListItem CodedValue="CARDIOVASCULAR" OrderNumber="9">
          <Decode>
            <TranslatedText xml:lang="en">Cardiovascular</TranslatedText>
            <TranslatedText xml:lang="ja">Cardiovascular</TranslatedText>
          </Decode>
        </CodeListItem>
        <CodeListItem CodedValue="DERMATOLOGICAL" OrderNumber="10">
          <Decode>
            <TranslatedText xml:lang="en">Dermatological</TranslatedText>
            <TranslatedText xml:lang="ja">Dermatological</TranslatedText>
          </Decode>
        </CodeListItem>
        <CodeListItem CodedValue="EARS/NOSE/THROAT" OrderNumber="11">
          <Decode>
            <TranslatedText xml:lang="en">Ears / Nose / Throat</TranslatedText>
            <TranslatedText xml:lang="ja">Ears / Nose / Throat</TranslatedText>
          </Decode>
        </CodeListItem>
        <CodeListItem CodedValue="ENDOCRINE/METABOLIC" OrderNumber="12">
          <Decode>
            <TranslatedText xml:lang="en">Endocrine / Metabolic</TranslatedText>
            <TranslatedText xml:lang="ja">Endocrine / Metabolic</TranslatedText>
          </Decode>
        </CodeListItem>
        <CodeListItem CodedValue="GASTROINTESTINAL" OrderNumber="13">
          <Decode>
            <TranslatedText xml:lang="en">Gastrointestinal</TranslatedText>
            <TranslatedText xml:lang="ja">Gastrointestinal</TranslatedText>
          </Decode>
        </CodeListItem>
        <CodeListItem CodedValue="GENITO-URINARY" OrderNumber="14">
          <Decode>
            <TranslatedText xml:lang="en">Genito-urinary</TranslatedText>
            <TranslatedText xml:lang="ja">Genito-urinary</TranslatedText>
          </Decode>
        </CodeListItem>
        <CodeListItem CodedValue="HEMATOLOGIC/LYMPHATIC" OrderNumber="15">
          <Decode>
            <TranslatedText xml:lang="en">Hematologic / Lymphatic</TranslatedText>
            <TranslatedText xml:lang="ja">Hematologic / Lymphatic</TranslatedText>
          </Decode>
        </CodeListItem>
        <CodeListItem CodedValue="HEPATIC" OrderNumber="16">
          <Decode>
            <TranslatedText xml:lang="en">Hepatic</TranslatedText>
            <TranslatedText xml:lang="ja">Hepatic</TranslatedText>
          </Decode>
        </CodeListItem>
      </CodeList>
      <CodeList OID="COUNTRIES" Name="COUNTRIES" DataType="text">
        <CodeListItem CodedValue="ABW" OrderNumber="1">
          <Decode>
            <TranslatedText xml:lang="en">ARUBA</TranslatedText>
            <TranslatedText xml:lang="ja">ARUBA</TranslatedText>
          </Decode>
        </CodeListItem>
        <CodeListItem CodedValue="ARG" OrderNumber="2">
          <Decode>
            <TranslatedText xml:lang="en">ARGENTINA</TranslatedText>
            <TranslatedText xml:lang="ja">ARGENTINA</TranslatedText>
          </Decode>
        </CodeListItem>
        <CodeListItem CodedValue="HTI" OrderNumber="3">
          <Decode>
            <TranslatedText xml:lang="en">HAITI</TranslatedText>
            <TranslatedText xml:lang="ja">HAITI</TranslatedText>
          </Decode>
        </CodeListItem>
        <CodeListItem CodedValue="HUN" OrderNumber="4">
          <Decode>
            <TranslatedText xml:lang="en">HUNGARY</TranslatedText>
            <TranslatedText xml:lang="ja">HUNGARY</TranslatedText>
          </Decode>
        </CodeListItem>
        <CodeListItem CodedValue="IDN" OrderNumber="5">
          <Decode>
            <TranslatedText xml:lang="en">INDONESIA</TranslatedText>
            <TranslatedText xml:lang="ja">INDONESIA</TranslatedText>
          </Decode>
        </CodeListItem>
        <CodeListItem CodedValue="IMN" OrderNumber="6">
          <Decode>
            <TranslatedText xml:lang="en">ISLE OF MAN</TranslatedText>
            <TranslatedText xml:lang="ja">ISLE OF MAN</TranslatedText>
          </Decode>
        </CodeListItem>
        <CodeListItem CodedValue="IND" OrderNumber="7">
          <Decode>
            <TranslatedText xml:lang="en">INDIA</TranslatedText>
            <TranslatedText xml:lang="ja">INDIA</TranslatedText>
          </Decode>
        </CodeListItem>
        <CodeListItem CodedValue="IOT" OrderNumber="8">
          <Decode>
            <TranslatedText xml:lang="en">BRITISH INDIAN OCEAN TERRITORY</TranslatedText>
            <TranslatedText xml:lang="ja">BRITISH INDIAN OCEAN TERRITORY</TranslatedText>
          </Decode>
        </CodeListItem>
        <CodeListItem CodedValue="IRL" OrderNumber="9">
          <Decode>
            <TranslatedText xml:lang="en">IRELAND</TranslatedText>
            <TranslatedText xml:lang="ja">IRELAND</TranslatedText>
          </Decode>
        </CodeListItem>
        <CodeListItem CodedValue="IRN" OrderNumber="10">
          <Decode>
            <TranslatedText xml:lang="en">IRAN (Islamic Republic of Iran)</TranslatedText>
            <TranslatedText xml:lang="ja">IRAN (Islamic Republic of Iran)</TranslatedText>
          </Decode>
        </CodeListItem>
        <CodeListItem CodedValue="IRQ" OrderNumber="11">
          <Decode>
            <TranslatedText xml:lang="en">IRAQ</TranslatedText>
            <TranslatedText xml:lang="ja">IRAQ</TranslatedText>
          </Decode>
        </CodeListItem>
        <CodeListItem CodedValue="ISL" OrderNumber="12">
          <Decode>
            <TranslatedText xml:lang="en">ICELAND</TranslatedText>
            <TranslatedText xml:lang="ja">ICELAND</TranslatedText>
          </Decode>
        </CodeListItem>
        <CodeListItem CodedValue="ARM" OrderNumber="13">
          <Decode>
            <TranslatedText xml:lang="en">ARMENIA</TranslatedText>
            <TranslatedText xml:lang="ja">ARMENIA</TranslatedText>
          </Decode>
        </CodeListItem>
        <CodeListItem CodedValue="ISR" OrderNumber="14">
          <Decode>
            <TranslatedText xml:lang="en">ISRAEL</TranslatedText>
            <TranslatedText xml:lang="ja">ISRAEL</TranslatedText>
          </Decode>
        </CodeListItem>
        <CodeListItem CodedValue="ITA" OrderNumber="15">
          <Decode>
            <TranslatedText xml:lang="en">ITALY</TranslatedText>
            <TranslatedText xml:lang="ja">ITALY</TranslatedText>
          </Decode>
        </CodeListItem>
        <CodeListItem CodedValue="JAM" OrderNumber="16">
          <Decode>
            <TranslatedText xml:lang="en">JAMAICA</TranslatedText>
            <TranslatedText xml:lang="ja">JAMAICA</TranslatedText>
          </Decode>
        </CodeListItem>
        <CodeListItem CodedValue="JEY" OrderNumber="17">
          <Decode>
            <TranslatedText xml:lang="en">JERSEY</TranslatedText>
            <TranslatedText xml:lang="ja">JERSEY</TranslatedText>
          </Decode>
        </CodeListItem>
        <CodeListItem CodedValue="JOR" OrderNumber="18">
          <Decode>
            <TranslatedText xml:lang="en">JORDAN (Hashemite Kingdom of Jordan)</TranslatedText>
            <TranslatedText xml:lang="ja">JORDAN (Hashemite Kingdom of Jordan)</TranslatedText>
          </Decode>
        </CodeListItem>
        <CodeListItem CodedValue="JPN" OrderNumber="19">
          <Decode>
            <TranslatedText xml:lang="en">JAPAN</TranslatedText>
            <TranslatedText xml:lang="ja">JAPAN</TranslatedText>
          </Decode>
        </CodeListItem>
        <CodeListItem CodedValue="KAZ" OrderNumber="20">
          <Decode>
            <TranslatedText xml:lang="en">KAZAKHSTAN</TranslatedText>
            <TranslatedText xml:lang="ja">KAZAKHSTAN</TranslatedText>
          </Decode>
        </CodeListItem>
        <CodeListItem CodedValue="KEN" OrderNumber="21">
          <Decode>
            <TranslatedText xml:lang="en">KENYA</TranslatedText>
            <TranslatedText xml:lang="ja">KENYA</TranslatedText>
          </Decode>
        </CodeListItem>
        <CodeListItem CodedValue="KGZ" OrderNumber="22">
          <Decode>
            <TranslatedText xml:lang="en">KYRGYZSTAN</TranslatedText>
            <TranslatedText xml:lang="ja">KYRGYZSTAN</TranslatedText>
          </Decode>
        </CodeListItem>
        <CodeListItem CodedValue="KHM" OrderNumber="23">
          <Decode>
            <TranslatedText xml:lang="en">CAMBODIA</TranslatedText>
            <TranslatedText xml:lang="ja">CAMBODIA</TranslatedText>
          </Decode>
        </CodeListItem>
        <CodeListItem CodedValue="ASM" OrderNumber="24">
          <Decode>
            <TranslatedText xml:lang="en">AMERICAN SAMOA</TranslatedText>
            <TranslatedText xml:lang="ja">AMERICAN SAMOA</TranslatedText>
          </Decode>
        </CodeListItem>
        <CodeListItem CodedValue="KIR" OrderNumber="25">
          <Decode>
            <TranslatedText xml:lang="en">KIRIBATI</TranslatedText>
            <TranslatedText xml:lang="ja">KIRIBATI</TranslatedText>
          </Decode>
        </CodeListItem>
        <CodeListItem CodedValue="KNA" OrderNumber="26">
          <Decode>
            <TranslatedText xml:lang="en">SAINT KITTS AND NEVIS</TranslatedText>
            <TranslatedText xml:lang="ja">SAINT KITTS AND NEVIS</TranslatedText>
          </Decode>
        </CodeListItem>
        <CodeListItem CodedValue="KOR" OrderNumber="27">
          <Decode>
            <TranslatedText xml:lang="en">KOREA (Republic of [South] Korea)</TranslatedText>
            <TranslatedText xml:lang="ja">KOREA (Republic of [South] Korea)</TranslatedText>
          </Decode>
        </CodeListItem>
        <CodeListItem CodedValue="KWT" OrderNumber="28">
          <Decode>
            <TranslatedText xml:lang="en">KUWAIT</TranslatedText>
            <TranslatedText xml:lang="ja">KUWAIT</TranslatedText>
          </Decode>
        </CodeListItem>
        <CodeListItem CodedValue="LAO" OrderNumber="29">
          <Decode>
            <TranslatedText xml:lang="en">LAO PEOPLE'S DEMOCRATIC REPUBLIC</TranslatedText>
            <TranslatedText xml:lang="ja">LAO PEOPLE'S DEMOCRATIC REPUBLIC</TranslatedText>
          </Decode>
        </CodeListItem>
        <CodeListItem CodedValue="LBN" OrderNumber="30">
          <Decode>
            <TranslatedText xml:lang="en">LEBANON</TranslatedText>
            <TranslatedText xml:lang="ja">LEBANON</TranslatedText>
          </Decode>
        </CodeListItem>
        <CodeListItem CodedValue="LBR" OrderNumber="31">
          <Decode>
            <TranslatedText xml:lang="en">LIBERIA</TranslatedText>
            <TranslatedText xml:lang="ja">LIBERIA</TranslatedText>
          </Decode>
        </CodeListItem>
        <CodeListItem CodedValue="LBY" OrderNumber="32">
          <Decode>
            <TranslatedText xml:lang="en">LIBYA (Libyan Arab Jamahirya)</TranslatedText>
            <TranslatedText xml:lang="ja">LIBYA (Libyan Arab Jamahirya)</TranslatedText>
          </Decode>
        </CodeListItem>
        <CodeListItem CodedValue="LCA" OrderNumber="33">
          <Decode>
            <TranslatedText xml:lang="en">SAINT LUCIA</TranslatedText>
            <TranslatedText xml:lang="ja">SAINT LUCIA</TranslatedText>
          </Decode>
        </CodeListItem>
        <CodeListItem CodedValue="LIE" OrderNumber="34">
          <Decode>
            <TranslatedText xml:lang="en">LIECHTENSTEIN (Fürstentum Liechtenstein)</TranslatedText>
            <TranslatedText xml:lang="ja">LIECHTENSTEIN (Fürstentum Liechtenstein)</TranslatedText>
          </Decode>
        </CodeListItem>
        <CodeListItem CodedValue="ATA" OrderNumber="35">
          <Decode>
            <TranslatedText xml:lang="en">ANTARCTICA</TranslatedText>
            <TranslatedText xml:lang="ja">ANTARCTICA</TranslatedText>
          </Decode>
        </CodeListItem>
        <CodeListItem CodedValue="LKA" OrderNumber="36">
          <Decode>
            <TranslatedText xml:lang="en">SRI LANKA (formerly Ceylon)</TranslatedText>
            <TranslatedText xml:lang="ja">SRI LANKA (formerly Ceylon)</TranslatedText>
          </Decode>
        </CodeListItem>
        <CodeListItem CodedValue="LSO" OrderNumber="37">
          <Decode>
            <TranslatedText xml:lang="en">LESOTHO</TranslatedText>
            <TranslatedText xml:lang="ja">LESOTHO</TranslatedText>
          </Decode>
        </CodeListItem>
        <CodeListItem CodedValue="LTU" OrderNumber="38">
          <Decode>
            <TranslatedText xml:lang="en">LITHUANIA</TranslatedText>
            <TranslatedText xml:lang="ja">LITHUANIA</TranslatedText>
          </Decode>
        </CodeListItem>
        <CodeListItem CodedValue="LUX" OrderNumber="39">
          <Decode>
            <TranslatedText xml:lang="en">LUXEMBOURG</TranslatedText>
            <TranslatedText xml:lang="ja">LUXEMBOURG</TranslatedText>
          </Decode>
        </CodeListItem>
        <CodeListItem CodedValue="LVA" OrderNumber="40">
          <Decode>
            <TranslatedText xml:lang="en">LATVIA</TranslatedText>
            <TranslatedText xml:lang="ja">LATVIA</TranslatedText>
          </Decode>
        </CodeListItem>
        <CodeListItem CodedValue="MAC" OrderNumber="41">
          <Decode>
            <TranslatedText xml:lang="en">MACAO (Special Administrative Region of China)</TranslatedText>
            <TranslatedText xml:lang="ja">MACAO (Special Administrative Region of China)</TranslatedText>
          </Decode>
        </CodeListItem>
        <CodeListItem CodedValue="MAR" OrderNumber="42">
          <Decode>
            <TranslatedText xml:lang="en">MOROCCO</TranslatedText>
            <TranslatedText xml:lang="ja">MOROCCO</TranslatedText>
          </Decode>
        </CodeListItem>
        <CodeListItem CodedValue="MCO" OrderNumber="43">
          <Decode>
            <TranslatedText xml:lang="en">MONACO</TranslatedText>
            <TranslatedText xml:lang="ja">MONACO</TranslatedText>
          </Decode>
        </CodeListItem>
        <CodeListItem CodedValue="MDA" OrderNumber="44">
          <Decode>
            <TranslatedText xml:lang="en">MOLDOVA</TranslatedText>
            <TranslatedText xml:lang="ja">MOLDOVA</TranslatedText>
          </Decode>
        </CodeListItem>
        <CodeListItem CodedValue="MDG" OrderNumber="45">
          <Decode>
            <TranslatedText xml:lang="en">MADAGASCAR</TranslatedText>
            <TranslatedText xml:lang="ja">MADAGASCAR</TranslatedText>
          </Decode>
        </CodeListItem>
        <CodeListItem CodedValue="ATF" OrderNumber="46">
          <Decode>
            <TranslatedText xml:lang="en">FRENCH SOUTHERN TERRITORIES</TranslatedText>
            <TranslatedText xml:lang="ja">FRENCH SOUTHERN TERRITORIES</TranslatedText>
          </Decode>
        </CodeListItem>
        <CodeListItem CodedValue="MDV" OrderNumber="47">
          <Decode>
            <TranslatedText xml:lang="en">MALDIVES</TranslatedText>
            <TranslatedText xml:lang="ja">MALDIVES</TranslatedText>
          </Decode>
        </CodeListItem>
        <CodeListItem CodedValue="MEX" OrderNumber="48">
          <Decode>
            <TranslatedText xml:lang="en">MEXICO</TranslatedText>
            <TranslatedText xml:lang="ja">MEXICO</TranslatedText>
          </Decode>
        </CodeListItem>
        <CodeListItem CodedValue="MHL" OrderNumber="49">
          <Decode>
            <TranslatedText xml:lang="en">MARSHALL ISLANDS</TranslatedText>
            <TranslatedText xml:lang="ja">MARSHALL ISLANDS</TranslatedText>
          </Decode>
        </CodeListItem>
        <CodeListItem CodedValue="MKD" OrderNumber="50">
          <Decode>
            <TranslatedText xml:lang="en">MACEDONIA (Former Yugoslav Republic of Macedonia)</TranslatedText>
            <TranslatedText xml:lang="ja">MACEDONIA (Former Yugoslav Republic of Macedonia)</TranslatedText>
          </Decode>
        </CodeListItem>
        <CodeListItem CodedValue="MLI" OrderNumber="51">
          <Decode>
            <TranslatedText xml:lang="en">MALI</TranslatedText>
            <TranslatedText xml:lang="ja">MALI</TranslatedText>
          </Decode>
        </CodeListItem>
        <CodeListItem CodedValue="MLT" OrderNumber="52">
          <Decode>
            <TranslatedText xml:lang="en">MALTA</TranslatedText>
            <TranslatedText xml:lang="ja">MALTA</TranslatedText>
          </Decode>
        </CodeListItem>
        <CodeListItem CodedValue="MMR" OrderNumber="53">
          <Decode>
            <TranslatedText xml:lang="en">MYANMAR (formerly Burma)</TranslatedText>
            <TranslatedText xml:lang="ja">MYANMAR (formerly Burma)</TranslatedText>
          </Decode>
        </CodeListItem>
        <CodeListItem CodedValue="MNE" OrderNumber="54">
          <Decode>
            <TranslatedText xml:lang="en">MONTENEGRO</TranslatedText>
            <TranslatedText xml:lang="ja">MONTENEGRO</TranslatedText>
          </Decode>
        </CodeListItem>
        <CodeListItem CodedValue="MNG" OrderNumber="55">
          <Decode>
            <TranslatedText xml:lang="en">MONGOLIA</TranslatedText>
            <TranslatedText xml:lang="ja">MONGOLIA</TranslatedText>
          </Decode>
        </CodeListItem>
        <CodeListItem CodedValue="MNP" OrderNumber="56">
          <Decode>
            <TranslatedText xml:lang="en">NORTHERN MARIANA ISLANDS</TranslatedText>
            <TranslatedText xml:lang="ja">NORTHERN MARIANA ISLANDS</TranslatedText>
          </Decode>
        </CodeListItem>
        <CodeListItem CodedValue="ATG" OrderNumber="57">
          <Decode>
            <TranslatedText xml:lang="en">ANTIGUA AND BARBUDA</TranslatedText>
            <TranslatedText xml:lang="ja">ANTIGUA AND BARBUDA</TranslatedText>
          </Decode>
        </CodeListItem>
        <CodeListItem CodedValue="MOZ" OrderNumber="58">
          <Decode>
            <TranslatedText xml:lang="en">MOZAMBIQUE (Moçambique)</TranslatedText>
            <TranslatedText xml:lang="ja">MOZAMBIQUE (Moçambique)</TranslatedText>
          </Decode>
        </CodeListItem>
        <CodeListItem CodedValue="MRT" OrderNumber="59">
          <Decode>
            <TranslatedText xml:lang="en">MAURITANIA</TranslatedText>
            <TranslatedText xml:lang="ja">MAURITANIA</TranslatedText>
          </Decode>
        </CodeListItem>
        <CodeListItem CodedValue="MSR" OrderNumber="60">
          <Decode>
            <TranslatedText xml:lang="en">MONTSERRAT</TranslatedText>
            <TranslatedText xml:lang="ja">MONTSERRAT</TranslatedText>
          </Decode>
        </CodeListItem>
        <CodeListItem CodedValue="MTQ" OrderNumber="61">
          <Decode>
            <TranslatedText xml:lang="en">MARTINIQUE</TranslatedText>
            <TranslatedText xml:lang="ja">MARTINIQUE</TranslatedText>
          </Decode>
        </CodeListItem>
        <CodeListItem CodedValue="MUS" OrderNumber="62">
          <Decode>
            <TranslatedText xml:lang="en">MAURITIUS</TranslatedText>
            <TranslatedText xml:lang="ja">MAURITIUS</TranslatedText>
          </Decode>
        </CodeListItem>
        <CodeListItem CodedValue="MWI" OrderNumber="63">
          <Decode>
            <TranslatedText xml:lang="en">MALAWI</TranslatedText>
            <TranslatedText xml:lang="ja">MALAWI</TranslatedText>
          </Decode>
        </CodeListItem>
        <CodeListItem CodedValue="MYS" OrderNumber="64">
          <Decode>
            <TranslatedText xml:lang="en">MALAYSIA</TranslatedText>
            <TranslatedText xml:lang="ja">MALAYSIA</TranslatedText>
          </Decode>
        </CodeListItem>
        <CodeListItem CodedValue="MYT" OrderNumber="65">
          <Decode>
            <TranslatedText xml:lang="en">MAYOTTE</TranslatedText>
            <TranslatedText xml:lang="ja">MAYOTTE</TranslatedText>
          </Decode>
        </CodeListItem>
        <CodeListItem CodedValue="NAM" OrderNumber="66">
          <Decode>
            <TranslatedText xml:lang="en">NAMIBIA</TranslatedText>
            <TranslatedText xml:lang="ja">NAMIBIA</TranslatedText>
          </Decode>
        </CodeListItem>
        <CodeListItem CodedValue="NCL" OrderNumber="67">
          <Decode>
            <TranslatedText xml:lang="en">NEW CALEDONIA</TranslatedText>
            <TranslatedText xml:lang="ja">NEW CALEDONIA</TranslatedText>
          </Decode>
        </CodeListItem>
        <CodeListItem CodedValue="AUS" OrderNumber="68">
          <Decode>
            <TranslatedText xml:lang="en">AUSTRALIA</TranslatedText>
            <TranslatedText xml:lang="ja">AUSTRALIA</TranslatedText>
          </Decode>
        </CodeListItem>
        <CodeListItem CodedValue="NER" OrderNumber="69">
          <Decode>
            <TranslatedText xml:lang="en">NIGER</TranslatedText>
            <TranslatedText xml:lang="ja">NIGER</TranslatedText>
          </Decode>
        </CodeListItem>
        <CodeListItem CodedValue="NFK" OrderNumber="70">
          <Decode>
            <TranslatedText xml:lang="en">NORFOLK ISLAND</TranslatedText>
            <TranslatedText xml:lang="ja">NORFOLK ISLAND</TranslatedText>
          </Decode>
        </CodeListItem>
        <CodeListItem CodedValue="NGA" OrderNumber="71">
          <Decode>
            <TranslatedText xml:lang="en">NIGERIA</TranslatedText>
            <TranslatedText xml:lang="ja">NIGERIA</TranslatedText>
          </Decode>
        </CodeListItem>
        <CodeListItem CodedValue="NIC" OrderNumber="72">
          <Decode>
            <TranslatedText xml:lang="en">NICARAGUA</TranslatedText>
            <TranslatedText xml:lang="ja">NICARAGUA</TranslatedText>
          </Decode>
        </CodeListItem>
        <CodeListItem CodedValue="NIU" OrderNumber="73">
          <Decode>
            <TranslatedText xml:lang="en">NIUE</TranslatedText>
            <TranslatedText xml:lang="ja">NIUE</TranslatedText>
          </Decode>
        </CodeListItem>
        <CodeListItem CodedValue="NLD" OrderNumber="74">
          <Decode>
            <TranslatedText xml:lang="en">NETHERLANDS</TranslatedText>
            <TranslatedText xml:lang="ja">NETHERLANDS</TranslatedText>
          </Decode>
        </CodeListItem>
        <CodeListItem CodedValue="NOR" OrderNumber="75">
          <Decode>
            <TranslatedText xml:lang="en">NORWAY</TranslatedText>
            <TranslatedText xml:lang="ja">NORWAY</TranslatedText>
          </Decode>
        </CodeListItem>
        <CodeListItem CodedValue="NPL" OrderNumber="76">
          <Decode>
            <TranslatedText xml:lang="en">NEPAL</TranslatedText>
            <TranslatedText xml:lang="ja">NEPAL</TranslatedText>
          </Decode>
        </CodeListItem>
        <CodeListItem CodedValue="NRU" OrderNumber="77">
          <Decode>
            <TranslatedText xml:lang="en">NAURU</TranslatedText>
            <TranslatedText xml:lang="ja">NAURU</TranslatedText>
          </Decode>
        </CodeListItem>
        <CodeListItem CodedValue="NZL" OrderNumber="78">
          <Decode>
            <TranslatedText xml:lang="en">NEW ZEALAND</TranslatedText>
            <TranslatedText xml:lang="ja">NEW ZEALAND</TranslatedText>
          </Decode>
        </CodeListItem>
        <CodeListItem CodedValue="AUT" OrderNumber="79">
          <Decode>
            <TranslatedText xml:lang="en">AUSTRIA</TranslatedText>
            <TranslatedText xml:lang="ja">AUSTRIA</TranslatedText>
          </Decode>
        </CodeListItem>
        <CodeListItem CodedValue="OMN" OrderNumber="80">
          <Decode>
            <TranslatedText xml:lang="en">OMAN</TranslatedText>
            <TranslatedText xml:lang="ja">OMAN</TranslatedText>
          </Decode>
        </CodeListItem>
        <CodeListItem CodedValue="PAK" OrderNumber="81">
          <Decode>
            <TranslatedText xml:lang="en">PAKISTAN</TranslatedText>
            <TranslatedText xml:lang="ja">PAKISTAN</TranslatedText>
          </Decode>
        </CodeListItem>
        <CodeListItem CodedValue="PAN" OrderNumber="82">
          <Decode>
            <TranslatedText xml:lang="en">PANAMA</TranslatedText>
            <TranslatedText xml:lang="ja">PANAMA</TranslatedText>
          </Decode>
        </CodeListItem>
        <CodeListItem CodedValue="PCN" OrderNumber="83">
          <Decode>
            <TranslatedText xml:lang="en">PITCAIRN</TranslatedText>
            <TranslatedText xml:lang="ja">PITCAIRN</TranslatedText>
          </Decode>
        </CodeListItem>
        <CodeListItem CodedValue="PER" OrderNumber="84">
          <Decode>
            <TranslatedText xml:lang="en">PERU</TranslatedText>
            <TranslatedText xml:lang="ja">PERU</TranslatedText>
          </Decode>
        </CodeListItem>
        <CodeListItem CodedValue="PHL" OrderNumber="85">
          <Decode>
            <TranslatedText xml:lang="en">PHILIPPINES</TranslatedText>
            <TranslatedText xml:lang="ja">PHILIPPINES</TranslatedText>
          </Decode>
        </CodeListItem>
        <CodeListItem CodedValue="PLW" OrderNumber="86">
          <Decode>
            <TranslatedText xml:lang="en">PALAU</TranslatedText>
            <TranslatedText xml:lang="ja">PALAU</TranslatedText>
          </Decode>
        </CodeListItem>
        <CodeListItem CodedValue="PNG" OrderNumber="87">
          <Decode>
            <TranslatedText xml:lang="en">PAPUA NEW GUINEA</TranslatedText>
            <TranslatedText xml:lang="ja">PAPUA NEW GUINEA</TranslatedText>
          </Decode>
        </CodeListItem>
        <CodeListItem CodedValue="POL" OrderNumber="88">
          <Decode>
            <TranslatedText xml:lang="en">POLAND</TranslatedText>
            <TranslatedText xml:lang="ja">POLAND</TranslatedText>
          </Decode>
        </CodeListItem>
        <CodeListItem CodedValue="PRI" OrderNumber="89">
          <Decode>
            <TranslatedText xml:lang="en">PUERTO RICO</TranslatedText>
            <TranslatedText xml:lang="ja">PUERTO RICO</TranslatedText>
          </Decode>
        </CodeListItem>
        <CodeListItem CodedValue="AZE" OrderNumber="90">
          <Decode>
            <TranslatedText xml:lang="en">AZERBAIJAN</TranslatedText>
            <TranslatedText xml:lang="ja">AZERBAIJAN</TranslatedText>
          </Decode>
        </CodeListItem>
        <CodeListItem CodedValue="PRK" OrderNumber="91">
          <Decode>
            <TranslatedText xml:lang="en">KOREA (Democratic Peoples Republic of [North] Korea)</TranslatedText>
            <TranslatedText xml:lang="ja">KOREA (Democratic Peoples Republic of [North] Korea)</TranslatedText>
          </Decode>
        </CodeListItem>
        <CodeListItem CodedValue="PRT" OrderNumber="92">
          <Decode>
            <TranslatedText xml:lang="en">PORTUGAL</TranslatedText>
            <TranslatedText xml:lang="ja">PORTUGAL</TranslatedText>
          </Decode>
        </CodeListItem>
        <CodeListItem CodedValue="PRY" OrderNumber="93">
          <Decode>
            <TranslatedText xml:lang="en">PARAGUAY</TranslatedText>
            <TranslatedText xml:lang="ja">PARAGUAY</TranslatedText>
          </Decode>
        </CodeListItem>
        <CodeListItem CodedValue="PSE" OrderNumber="94">
          <Decode>
            <TranslatedText xml:lang="en">PALESTINIAN TERRITORIES</TranslatedText>
            <TranslatedText xml:lang="ja">PALESTINIAN TERRITORIES</TranslatedText>
          </Decode>
        </CodeListItem>
        <CodeListItem CodedValue="PYF" OrderNumber="95">
          <Decode>
            <TranslatedText xml:lang="en">FRENCH POLYNESIA</TranslatedText>
            <TranslatedText xml:lang="ja">FRENCH POLYNESIA</TranslatedText>
          </Decode>
        </CodeListItem>
        <CodeListItem CodedValue="QAT" OrderNumber="96">
          <Decode>
            <TranslatedText xml:lang="en">QATAR</TranslatedText>
            <TranslatedText xml:lang="ja">QATAR</TranslatedText>
          </Decode>
        </CodeListItem>
        <CodeListItem CodedValue="REU" OrderNumber="97">
          <Decode>
            <TranslatedText xml:lang="en">RÉUNION</TranslatedText>
            <TranslatedText xml:lang="ja">RÉUNION</TranslatedText>
          </Decode>
        </CodeListItem>
        <CodeListItem CodedValue="ROU" OrderNumber="98">
          <Decode>
            <TranslatedText xml:lang="en">ROMANIA</TranslatedText>
            <TranslatedText xml:lang="ja">ROMANIA</TranslatedText>
          </Decode>
        </CodeListItem>
        <CodeListItem CodedValue="RUS" OrderNumber="99">
          <Decode>
            <TranslatedText xml:lang="en">RUSSIAN FEDERATION</TranslatedText>
            <TranslatedText xml:lang="ja">RUSSIAN FEDERATION</TranslatedText>
          </Decode>
        </CodeListItem>
        <CodeListItem CodedValue="RWA" OrderNumber="100">
          <Decode>
            <TranslatedText xml:lang="en">RWANDA</TranslatedText>
            <TranslatedText xml:lang="ja">RWANDA</TranslatedText>
          </Decode>
        </CodeListItem>
        <CodeListItem CodedValue="BDI" OrderNumber="101">
          <Decode>
            <TranslatedText xml:lang="en">BURUNDI</TranslatedText>
            <TranslatedText xml:lang="ja">BURUNDI</TranslatedText>
          </Decode>
        </CodeListItem>
        <CodeListItem CodedValue="SAU" OrderNumber="102">
          <Decode>
            <TranslatedText xml:lang="en">SAUDI ARABIA (Kingdom of Saudi Arabia)</TranslatedText>
            <TranslatedText xml:lang="ja">SAUDI ARABIA (Kingdom of Saudi Arabia)</TranslatedText>
          </Decode>
        </CodeListItem>
        <CodeListItem CodedValue="SDN" OrderNumber="103">
          <Decode>
            <TranslatedText xml:lang="en">SUDAN</TranslatedText>
            <TranslatedText xml:lang="ja">SUDAN</TranslatedText>
          </Decode>
        </CodeListItem>
        <CodeListItem CodedValue="SEN" OrderNumber="104">
          <Decode>
            <TranslatedText xml:lang="en">SENEGAL</TranslatedText>
            <TranslatedText xml:lang="ja">SENEGAL</TranslatedText>
          </Decode>
        </CodeListItem>
        <CodeListItem CodedValue="SGP" OrderNumber="105">
          <Decode>
            <TranslatedText xml:lang="en">SINGAPORE</TranslatedText>
            <TranslatedText xml:lang="ja">SINGAPORE</TranslatedText>
          </Decode>
        </CodeListItem>
        <CodeListItem CodedValue="SGS" OrderNumber="106">
          <Decode>
            <TranslatedText xml:lang="en">SOUTH GEORGIA AND THE SOUTH SANDWICH ISLANDS</TranslatedText>
            <TranslatedText xml:lang="ja">SOUTH GEORGIA AND THE SOUTH SANDWICH ISLANDS</TranslatedText>
          </Decode>
        </CodeListItem>
        <CodeListItem CodedValue="SHN" OrderNumber="107">
          <Decode>
            <TranslatedText xml:lang="en">SAINT HELENA</TranslatedText>
            <TranslatedText xml:lang="ja">SAINT HELENA</TranslatedText>
          </Decode>
        </CodeListItem>
        <CodeListItem CodedValue="SJM" OrderNumber="108">
          <Decode>
            <TranslatedText xml:lang="en">SVALBARD AND JAN MAYEN</TranslatedText>
            <TranslatedText xml:lang="ja">SVALBARD AND JAN MAYEN</TranslatedText>
          </Decode>
        </CodeListItem>
        <CodeListItem CodedValue="SLB" OrderNumber="109">
          <Decode>
            <TranslatedText xml:lang="en">SOLOMON ISLANDS</TranslatedText>
            <TranslatedText xml:lang="ja">SOLOMON ISLANDS</TranslatedText>
          </Decode>
        </CodeListItem>
        <CodeListItem CodedValue="SLE" OrderNumber="110">
          <Decode>
            <TranslatedText xml:lang="en">SIERRA LEONE</TranslatedText>
            <TranslatedText xml:lang="ja">SIERRA LEONE</TranslatedText>
          </Decode>
        </CodeListItem>
        <CodeListItem CodedValue="SLV" OrderNumber="111">
          <Decode>
            <TranslatedText xml:lang="en">EL SALVADOR</TranslatedText>
            <TranslatedText xml:lang="ja">EL SALVADOR</TranslatedText>
          </Decode>
        </CodeListItem>
        <CodeListItem CodedValue="AFG" OrderNumber="112">
          <Decode>
            <TranslatedText xml:lang="en">AFGHANISTAN</TranslatedText>
            <TranslatedText xml:lang="ja">AFGHANISTAN</TranslatedText>
          </Decode>
        </CodeListItem>
        <CodeListItem CodedValue="BEL" OrderNumber="113">
          <Decode>
            <TranslatedText xml:lang="en">BELGIUM</TranslatedText>
            <TranslatedText xml:lang="ja">BELGIUM</TranslatedText>
          </Decode>
        </CodeListItem>
        <CodeListItem CodedValue="SMR" OrderNumber="114">
          <Decode>
            <TranslatedText xml:lang="en">SAN MARINO (Republic of)</TranslatedText>
            <TranslatedText xml:lang="ja">SAN MARINO (Republic of)</TranslatedText>
          </Decode>
        </CodeListItem>
        <CodeListItem CodedValue="SOM" OrderNumber="115">
          <Decode>
            <TranslatedText xml:lang="en">SOMALIA</TranslatedText>
            <TranslatedText xml:lang="ja">SOMALIA</TranslatedText>
          </Decode>
        </CodeListItem>
        <CodeListItem CodedValue="SPM" OrderNumber="116">
          <Decode>
            <TranslatedText xml:lang="en">SAINT PIERRE AND MIQUELON</TranslatedText>
            <TranslatedText xml:lang="ja">SAINT PIERRE AND MIQUELON</TranslatedText>
          </Decode>
        </CodeListItem>
        <CodeListItem CodedValue="SRB" OrderNumber="117">
          <Decode>
            <TranslatedText xml:lang="en">SERBIA (Republic of Serbia)</TranslatedText>
            <TranslatedText xml:lang="ja">SERBIA (Republic of Serbia)</TranslatedText>
          </Decode>
        </CodeListItem>
        <CodeListItem CodedValue="STP" OrderNumber="118">
          <Decode>
            <TranslatedText xml:lang="en">SAO TOME AND PRINCIPE</TranslatedText>
            <TranslatedText xml:lang="ja">SAO TOME AND PRINCIPE</TranslatedText>
          </Decode>
        </CodeListItem>
        <CodeListItem CodedValue="SUR" OrderNumber="119">
          <Decode>
            <TranslatedText xml:lang="en">SURINAME</TranslatedText>
            <TranslatedText xml:lang="ja">SURINAME</TranslatedText>
          </Decode>
        </CodeListItem>
        <CodeListItem CodedValue="SVK" OrderNumber="120">
          <Decode>
            <TranslatedText xml:lang="en">SLOVAKIA (Slovak Republic)</TranslatedText>
            <TranslatedText xml:lang="ja">SLOVAKIA (Slovak Republic)</TranslatedText>
          </Decode>
        </CodeListItem>
        <CodeListItem CodedValue="SVN" OrderNumber="121">
          <Decode>
            <TranslatedText xml:lang="en">SLOVENIA</TranslatedText>
            <TranslatedText xml:lang="ja">SLOVENIA</TranslatedText>
          </Decode>
        </CodeListItem>
        <CodeListItem CodedValue="SWE" OrderNumber="122">
          <Decode>
            <TranslatedText xml:lang="en">SWEDEN</TranslatedText>
            <TranslatedText xml:lang="ja">SWEDEN</TranslatedText>
          </Decode>
        </CodeListItem>
        <CodeListItem CodedValue="SWZ" OrderNumber="123">
          <Decode>
            <TranslatedText xml:lang="en">SWAZILAND</TranslatedText>
            <TranslatedText xml:lang="ja">SWAZILAND</TranslatedText>
          </Decode>
        </CodeListItem>
        <CodeListItem CodedValue="BEN" OrderNumber="124">
          <Decode>
            <TranslatedText xml:lang="en">BENIN</TranslatedText>
            <TranslatedText xml:lang="ja">BENIN</TranslatedText>
          </Decode>
        </CodeListItem>
        <CodeListItem CodedValue="SYC" OrderNumber="125">
          <Decode>
            <TranslatedText xml:lang="en">SEYCHELLES</TranslatedText>
            <TranslatedText xml:lang="ja">SEYCHELLES</TranslatedText>
          </Decode>
        </CodeListItem>
        <CodeListItem CodedValue="SYR" OrderNumber="126">
          <Decode>
            <TranslatedText xml:lang="en">SYRIAN ARAB REPUBLIC</TranslatedText>
            <TranslatedText xml:lang="ja">SYRIAN ARAB REPUBLIC</TranslatedText>
          </Decode>
        </CodeListItem>
        <CodeListItem CodedValue="TCA" OrderNumber="127">
          <Decode>
            <TranslatedText xml:lang="en">TURKS AND CAICOS ISLANDS</TranslatedText>
            <TranslatedText xml:lang="ja">TURKS AND CAICOS ISLANDS</TranslatedText>
          </Decode>
        </CodeListItem>
        <CodeListItem CodedValue="TCD" OrderNumber="128">
          <Decode>
            <TranslatedText xml:lang="en">CHAD (Tchad)</TranslatedText>
            <TranslatedText xml:lang="ja">CHAD (Tchad)</TranslatedText>
          </Decode>
        </CodeListItem>
        <CodeListItem CodedValue="TGO" OrderNumber="129">
          <Decode>
            <TranslatedText xml:lang="en">TOGO</TranslatedText>
            <TranslatedText xml:lang="ja">TOGO</TranslatedText>
          </Decode>
        </CodeListItem>
        <CodeListItem CodedValue="THA" OrderNumber="130">
          <Decode>
            <TranslatedText xml:lang="en">THAILAND</TranslatedText>
            <TranslatedText xml:lang="ja">THAILAND</TranslatedText>
          </Decode>
        </CodeListItem>
        <CodeListItem CodedValue="TJK" OrderNumber="131">
          <Decode>
            <TranslatedText xml:lang="en">TAJIKISTAN</TranslatedText>
            <TranslatedText xml:lang="ja">TAJIKISTAN</TranslatedText>
          </Decode>
        </CodeListItem>
        <CodeListItem CodedValue="TKL" OrderNumber="132">
          <Decode>
            <TranslatedText xml:lang="en">TOKELAU</TranslatedText>
            <TranslatedText xml:lang="ja">TOKELAU</TranslatedText>
          </Decode>
        </CodeListItem>
        <CodeListItem CodedValue="TKM" OrderNumber="133">
          <Decode>
            <TranslatedText xml:lang="en">TURKMENISTAN</TranslatedText>
            <TranslatedText xml:lang="ja">TURKMENISTAN</TranslatedText>
          </Decode>
        </CodeListItem>
        <CodeListItem CodedValue="TLS" OrderNumber="134">
          <Decode>
            <TranslatedText xml:lang="en">TIMOR-LESTE (formerly East Timor)</TranslatedText>
            <TranslatedText xml:lang="ja">TIMOR-LESTE (formerly East Timor)</TranslatedText>
          </Decode>
        </CodeListItem>
        <CodeListItem CodedValue="BFA" OrderNumber="135">
          <Decode>
            <TranslatedText xml:lang="en">BURKINA FASO</TranslatedText>
            <TranslatedText xml:lang="ja">BURKINA FASO</TranslatedText>
          </Decode>
        </CodeListItem>
        <CodeListItem CodedValue="TON" OrderNumber="136">
          <Decode>
            <TranslatedText xml:lang="en">TONGA</TranslatedText>
            <TranslatedText xml:lang="ja">TONGA</TranslatedText>
          </Decode>
        </CodeListItem>
        <CodeListItem CodedValue="TTO" OrderNumber="137">
          <Decode>
            <TranslatedText xml:lang="en">TRINIDAD AND TOBAGO</TranslatedText>
            <TranslatedText xml:lang="ja">TRINIDAD AND TOBAGO</TranslatedText>
          </Decode>
        </CodeListItem>
        <CodeListItem CodedValue="TUN" OrderNumber="138">
          <Decode>
            <TranslatedText xml:lang="en">TUNISIA</TranslatedText>
            <TranslatedText xml:lang="ja">TUNISIA</TranslatedText>
          </Decode>
        </CodeListItem>
        <CodeListItem CodedValue="TUR" OrderNumber="139">
          <Decode>
            <TranslatedText xml:lang="en">TURKEY</TranslatedText>
            <TranslatedText xml:lang="ja">TURKEY</TranslatedText>
          </Decode>
        </CodeListItem>
        <CodeListItem CodedValue="TUV" OrderNumber="140">
          <Decode>
            <TranslatedText xml:lang="en">TUVALU</TranslatedText>
            <TranslatedText xml:lang="ja">TUVALU</TranslatedText>
          </Decode>
        </CodeListItem>
        <CodeListItem CodedValue="TWN" OrderNumber="141">
          <Decode>
            <TranslatedText xml:lang="en">TAIWAN ("Chinese Taipei" for IOC)</TranslatedText>
            <TranslatedText xml:lang="ja">TAIWAN ("Chinese Taipei" for IOC)</TranslatedText>
          </Decode>
        </CodeListItem>
        <CodeListItem CodedValue="TZA" OrderNumber="142">
          <Decode>
            <TranslatedText xml:lang="en">TANZANIA</TranslatedText>
            <TranslatedText xml:lang="ja">TANZANIA</TranslatedText>
          </Decode>
        </CodeListItem>
        <CodeListItem CodedValue="UGA" OrderNumber="143">
          <Decode>
            <TranslatedText xml:lang="en">UGANDA</TranslatedText>
            <TranslatedText xml:lang="ja">UGANDA</TranslatedText>
          </Decode>
        </CodeListItem>
        <CodeListItem CodedValue="UKR" OrderNumber="144">
          <Decode>
            <TranslatedText xml:lang="en">UKRAINE</TranslatedText>
            <TranslatedText xml:lang="ja">UKRAINE</TranslatedText>
          </Decode>
        </CodeListItem>
        <CodeListItem CodedValue="UMI" OrderNumber="145">
          <Decode>
            <TranslatedText xml:lang="en">UNITED STATES MINOR OUTLYING ISLANDS</TranslatedText>
            <TranslatedText xml:lang="ja">UNITED STATES MINOR OUTLYING ISLANDS</TranslatedText>
          </Decode>
        </CodeListItem>
        <CodeListItem CodedValue="BGD" OrderNumber="146">
          <Decode>
            <TranslatedText xml:lang="en">BANGLADESH</TranslatedText>
            <TranslatedText xml:lang="ja">BANGLADESH</TranslatedText>
          </Decode>
        </CodeListItem>
        <CodeListItem CodedValue="URY" OrderNumber="147">
          <Decode>
            <TranslatedText xml:lang="en">URUGUAY</TranslatedText>
            <TranslatedText xml:lang="ja">URUGUAY</TranslatedText>
          </Decode>
        </CodeListItem>
        <CodeListItem CodedValue="USA" OrderNumber="148">
          <Decode>
            <TranslatedText xml:lang="en">UNITED STATES</TranslatedText>
            <TranslatedText xml:lang="ja">UNITED STATES</TranslatedText>
          </Decode>
        </CodeListItem>
        <CodeListItem CodedValue="UZB" OrderNumber="149">
          <Decode>
            <TranslatedText xml:lang="en">UZBEKISTAN</TranslatedText>
            <TranslatedText xml:lang="ja">UZBEKISTAN</TranslatedText>
          </Decode>
        </CodeListItem>
        <CodeListItem CodedValue="VAT" OrderNumber="150">
          <Decode>
            <TranslatedText xml:lang="en">VATICAN CITY (Holy See)</TranslatedText>
            <TranslatedText xml:lang="ja">VATICAN CITY (Holy See)</TranslatedText>
          </Decode>
        </CodeListItem>
        <CodeListItem CodedValue="VCT" OrderNumber="151">
          <Decode>
            <TranslatedText xml:lang="en">SAINT VINCENT AND THE GRENADINES</TranslatedText>
            <TranslatedText xml:lang="ja">SAINT VINCENT AND THE GRENADINES</TranslatedText>
          </Decode>
        </CodeListItem>
        <CodeListItem CodedValue="VEN" OrderNumber="152">
          <Decode>
            <TranslatedText xml:lang="en">VENEZUELA</TranslatedText>
            <TranslatedText xml:lang="ja">VENEZUELA</TranslatedText>
          </Decode>
        </CodeListItem>
        <CodeListItem CodedValue="VGB" OrderNumber="153">
          <Decode>
            <TranslatedText xml:lang="en">VIRGIN ISLANDS, BRITISH</TranslatedText>
            <TranslatedText xml:lang="ja">VIRGIN ISLANDS, BRITISH</TranslatedText>
          </Decode>
        </CodeListItem>
        <CodeListItem CodedValue="VIR" OrderNumber="154">
          <Decode>
            <TranslatedText xml:lang="en">VIRGIN ISLANDS, U.S.</TranslatedText>
            <TranslatedText xml:lang="ja">VIRGIN ISLANDS, U.S.</TranslatedText>
          </Decode>
        </CodeListItem>
        <CodeListItem CodedValue="VNM" OrderNumber="155">
          <Decode>
            <TranslatedText xml:lang="en">VIET NAM</TranslatedText>
            <TranslatedText xml:lang="ja">VIET NAM</TranslatedText>
          </Decode>
        </CodeListItem>
        <CodeListItem CodedValue="VUT" OrderNumber="156">
          <Decode>
            <TranslatedText xml:lang="en">VANUATU</TranslatedText>
            <TranslatedText xml:lang="ja">VANUATU</TranslatedText>
          </Decode>
        </CodeListItem>
        <CodeListItem CodedValue="BGR" OrderNumber="157">
          <Decode>
            <TranslatedText xml:lang="en">BULGARIA</TranslatedText>
            <TranslatedText xml:lang="ja">BULGARIA</TranslatedText>
          </Decode>
        </CodeListItem>
        <CodeListItem CodedValue="WLF" OrderNumber="158">
          <Decode>
            <TranslatedText xml:lang="en">WALLIS AND FUTUNA</TranslatedText>
            <TranslatedText xml:lang="ja">WALLIS AND FUTUNA</TranslatedText>
          </Decode>
        </CodeListItem>
        <CodeListItem CodedValue="WSM" OrderNumber="159">
          <Decode>
            <TranslatedText xml:lang="en">SAMOA (formerly Western Samoa)</TranslatedText>
            <TranslatedText xml:lang="ja">SAMOA (formerly Western Samoa)</TranslatedText>
          </Decode>
        </CodeListItem>
        <CodeListItem CodedValue="YEM" OrderNumber="160">
          <Decode>
            <TranslatedText xml:lang="en">YEMEN (Yemen Arab Republic)</TranslatedText>
            <TranslatedText xml:lang="ja">YEMEN (Yemen Arab Republic)</TranslatedText>
          </Decode>
        </CodeListItem>
        <CodeListItem CodedValue="ZAF" OrderNumber="161">
          <Decode>
            <TranslatedText xml:lang="en">SOUTH AFRICA (Zuid Afrika)</TranslatedText>
            <TranslatedText xml:lang="ja">SOUTH AFRICA (Zuid Afrika)</TranslatedText>
          </Decode>
        </CodeListItem>
        <CodeListItem CodedValue="ZMB" OrderNumber="162">
          <Decode>
            <TranslatedText xml:lang="en">ZAMBIA (formerly Northern Rhodesia)</TranslatedText>
            <TranslatedText xml:lang="ja">ZAMBIA (formerly Northern Rhodesia)</TranslatedText>
          </Decode>
        </CodeListItem>
        <CodeListItem CodedValue="ZWE" OrderNumber="163">
          <Decode>
            <TranslatedText xml:lang="en">ZIMBABWE</TranslatedText>
            <TranslatedText xml:lang="ja">ZIMBABWE</TranslatedText>
          </Decode>
        </CodeListItem>
        <CodeListItem CodedValue="BHR" OrderNumber="164">
          <Decode>
            <TranslatedText xml:lang="en">BAHRAIN</TranslatedText>
            <TranslatedText xml:lang="ja">BAHRAIN</TranslatedText>
          </Decode>
        </CodeListItem>
        <CodeListItem CodedValue="BHS" OrderNumber="165">
          <Decode>
            <TranslatedText xml:lang="en">BAHAMAS</TranslatedText>
            <TranslatedText xml:lang="ja">BAHAMAS</TranslatedText>
          </Decode>
        </CodeListItem>
        <CodeListItem CodedValue="BIH" OrderNumber="166">
          <Decode>
            <TranslatedText xml:lang="en">BOSNIA AND HERZEGOVINA</TranslatedText>
            <TranslatedText xml:lang="ja">BOSNIA AND HERZEGOVINA</TranslatedText>
          </Decode>
        </CodeListItem>
        <CodeListItem CodedValue="BLR" OrderNumber="167">
          <Decode>
            <TranslatedText xml:lang="en">BELARUS</TranslatedText>
            <TranslatedText xml:lang="ja">BELARUS</TranslatedText>
          </Decode>
        </CodeListItem>
        <CodeListItem CodedValue="BLZ" OrderNumber="168">
          <Decode>
            <TranslatedText xml:lang="en">BELIZE</TranslatedText>
            <TranslatedText xml:lang="ja">BELIZE</TranslatedText>
          </Decode>
        </CodeListItem>
        <CodeListItem CodedValue="AGO" OrderNumber="169">
          <Decode>
            <TranslatedText xml:lang="en">ANGOLA</TranslatedText>
            <TranslatedText xml:lang="ja">ANGOLA</TranslatedText>
          </Decode>
        </CodeListItem>
        <CodeListItem CodedValue="BMU" OrderNumber="170">
          <Decode>
            <TranslatedText xml:lang="en">BERMUDA</TranslatedText>
            <TranslatedText xml:lang="ja">BERMUDA</TranslatedText>
          </Decode>
        </CodeListItem>
        <CodeListItem CodedValue="BOL" OrderNumber="171">
          <Decode>
            <TranslatedText xml:lang="en">BOLIVIA</TranslatedText>
            <TranslatedText xml:lang="ja">BOLIVIA</TranslatedText>
          </Decode>
        </CodeListItem>
        <CodeListItem CodedValue="BRA" OrderNumber="172">
          <Decode>
            <TranslatedText xml:lang="en">BRAZIL</TranslatedText>
            <TranslatedText xml:lang="ja">BRAZIL</TranslatedText>
          </Decode>
        </CodeListItem>
        <CodeListItem CodedValue="BRB" OrderNumber="173">
          <Decode>
            <TranslatedText xml:lang="en">BARBADOS</TranslatedText>
            <TranslatedText xml:lang="ja">BARBADOS</TranslatedText>
          </Decode>
        </CodeListItem>
        <CodeListItem CodedValue="BRN" OrderNumber="174">
          <Decode>
            <TranslatedText xml:lang="en">BRUNEI DARUSSALAM</TranslatedText>
            <TranslatedText xml:lang="ja">BRUNEI DARUSSALAM</TranslatedText>
          </Decode>
        </CodeListItem>
        <CodeListItem CodedValue="BTN" OrderNumber="175">
          <Decode>
            <TranslatedText xml:lang="en">BHUTAN</TranslatedText>
            <TranslatedText xml:lang="ja">BHUTAN</TranslatedText>
          </Decode>
        </CodeListItem>
        <CodeListItem CodedValue="BVT" OrderNumber="176">
          <Decode>
            <TranslatedText xml:lang="en">BOUVET ISLAND</TranslatedText>
            <TranslatedText xml:lang="ja">BOUVET ISLAND</TranslatedText>
          </Decode>
        </CodeListItem>
        <CodeListItem CodedValue="BWA" OrderNumber="177">
          <Decode>
            <TranslatedText xml:lang="en">BOTSWANA</TranslatedText>
            <TranslatedText xml:lang="ja">BOTSWANA</TranslatedText>
          </Decode>
        </CodeListItem>
        <CodeListItem CodedValue="CAF" OrderNumber="178">
          <Decode>
            <TranslatedText xml:lang="en">CENTRAL AFRICAN REPUBLIC</TranslatedText>
            <TranslatedText xml:lang="ja">CENTRAL AFRICAN REPUBLIC</TranslatedText>
          </Decode>
        </CodeListItem>
        <CodeListItem CodedValue="CAN" OrderNumber="179">
          <Decode>
            <TranslatedText xml:lang="en">CANADA</TranslatedText>
            <TranslatedText xml:lang="ja">CANADA</TranslatedText>
          </Decode>
        </CodeListItem>
        <CodeListItem CodedValue="AIA" OrderNumber="180">
          <Decode>
            <TranslatedText xml:lang="en">ANGUILLA</TranslatedText>
            <TranslatedText xml:lang="ja">ANGUILLA</TranslatedText>
          </Decode>
        </CodeListItem>
        <CodeListItem CodedValue="CCK" OrderNumber="181">
          <Decode>
            <TranslatedText xml:lang="en">COCOS (KEELING) ISLANDS</TranslatedText>
            <TranslatedText xml:lang="ja">COCOS (KEELING) ISLANDS</TranslatedText>
          </Decode>
        </CodeListItem>
        <CodeListItem CodedValue="CHE" OrderNumber="182">
          <Decode>
            <TranslatedText xml:lang="en">SWITZERLAND (Confederation of Helvetia)</TranslatedText>
            <TranslatedText xml:lang="ja">SWITZERLAND (Confederation of Helvetia)</TranslatedText>
          </Decode>
        </CodeListItem>
        <CodeListItem CodedValue="CHL" OrderNumber="183">
          <Decode>
            <TranslatedText xml:lang="en">CHILE</TranslatedText>
            <TranslatedText xml:lang="ja">CHILE</TranslatedText>
          </Decode>
        </CodeListItem>
        <CodeListItem CodedValue="CHN" OrderNumber="184">
          <Decode>
            <TranslatedText xml:lang="en">CHINA</TranslatedText>
            <TranslatedText xml:lang="ja">CHINA</TranslatedText>
          </Decode>
        </CodeListItem>
        <CodeListItem CodedValue="CIV" OrderNumber="185">
          <Decode>
            <TranslatedText xml:lang="en">CÔTE D'IVOIRE (Ivory Coast)</TranslatedText>
            <TranslatedText xml:lang="ja">CÔTE D'IVOIRE (Ivory Coast)</TranslatedText>
          </Decode>
        </CodeListItem>
        <CodeListItem CodedValue="CMR" OrderNumber="186">
          <Decode>
            <TranslatedText xml:lang="en">CAMEROON</TranslatedText>
            <TranslatedText xml:lang="ja">CAMEROON</TranslatedText>
          </Decode>
        </CodeListItem>
        <CodeListItem CodedValue="COD" OrderNumber="187">
          <Decode>
            <TranslatedText xml:lang="en">CONGO, THE DEMOCRATIC REPUBLIC OF THE (formerly Zaire)</TranslatedText>
            <TranslatedText xml:lang="ja">CONGO, THE DEMOCRATIC REPUBLIC OF THE (formerly Zaire)</TranslatedText>
          </Decode>
        </CodeListItem>
        <CodeListItem CodedValue="COG" OrderNumber="188">
          <Decode>
